2,0,100,1,GDOP, 1246190400.0
Time_ms,Pos_X,Pos_Y,Pos_Z,Vel_X,Vel_Y,Vel_Z,Acc_X,Acc_Y,Acc_Z,Jerk_X,Jerk_Y,Jerk_Z,Lat,Long,Height,Heading,Elevation,Bank,Ang-vel_X,Ang-vel_Y,Ang-vel_Z,Ang-acc_X,Ang-acc_Y,Ang-acc_Z,Ant1_Pos_X,Ant1_Pos_Y,Ant1_Pos_Z,Ant1_Vel_X,Ant1_Vel_Y,Ant1_Vel_Z,Ant1_Acc_X,Ant1_Acc_Y,Ant1_Acc_Z,Ant1_Lat,Ant1_Long,Ant1_Height,Ant1_DOP
0,4162685.5481338953,664338.0690503363,4770530.1971474634,0.0000,0.0000,0.0000,-0.000,-0.000,-0.000,-30.293,-4.835,26.925,0.85043316758,0.15825900390,-0.0000000009,0.0000000000,0.0000000000,0.0000000000,0.000000,0.000000,0.000000,-0.0000,-0.0000,-0.0000,4162685.5481,664338.0691,4770530.1971,0.0000,0.0000,0.0000,-0.000,-0.000,-0.000,0.85043316758,0.15825900390,-0.0000,2.359
100,4162685.5430850922,664338.0682445795,4770530.2016349304,-0.1515,-0.0242,0.1346,-3.029,-0.483,2.692,-0.000,-0.000,0.000,0.85043316864,0.15825900390,0.0000000000,-0.0000000000,0.0000000000,0.0000000000,-0.000000,-0.000000,0.000000,0.0000,-0.0000,0.0000,4162685.5431,664338.0682,4770530.2016,-0.1515,-0.0242,0.1346,-3.029,-0.483,2.692,0.85043316864,0.15825900390,0.0000,2.359
200,4162685.5127922753,664338.0634100391,4770530.2285597324,-0.4544,-0.0725,0.4039,-3.029,-0.483,2.692,0.000,0.000,-0.000,0.85043317505,0.15825900390,0.0000000000,-0.0000000000,0.0000000000,0.0000000000,-0.000000,-0.000000,0.000000,0.0000,-0.0000,0.0000,4162685.5128,664338.0634,4770530.2286,-0.4544,-0.0725,0.4039,-3.029,-0.483,2.692,0.85043317505,0.15825900390,0.0000,2.359
300,4162685.4522066405,664338.0537409581,4770530.2824093364,-0.7573,-0.1209,0.6731,-3.029,-0.483,2.692,-0.000,-0.000,-0.000,0.85043318786,0.15825900390,0.0000000000,0.0000000000,0.0000000000,0.0000000000,0.000000,-0.000000,0.000000,-0.0000,-0.0000,-0.0000,4162685.4522,664338.0537,4770530.2824,-0.7573,-0.1209,0.6731,-3.029,-0.483,2.692,0.85043318786,0.15825900390,0.0000,2.359
400,4162685.3613281874,664338.0392373365,4770530.3631837405,-1.0602,-0.1692,0.9424,-3.029,-0.483,2.692,-0.000,-0.000,-0.000,0.85043320708,0.15825900390,0.0000000000,-0.0000000000,0.0000000000,0.0000000000,-0.000000,-0.000000,0.000000,-0.0000,-0.0000,0.0000,4162685.3613,664338.0392,4770530.3632,-1.0602,-0.1692,0.9424,-3.029,-0.483,2.692,0.85043320708,0.15825900390,0.0000,2.359
500,4162685.2401569141,664338.0198991740,4770530.4708829429,-1.3632,-0.2176,1.2116,-3.029,-0.483,2.692,-0.000,-0.000,-0.000,0.85043323270,0.15825900390,0.0000000000,0.0000000000,0.0000000000,0.0000000000,0.000000,-0.000000,0.000000,0.0000,-0.0000,0.0000,4162685.2402,664338.0199,4770530.4709,-1.3632,-0.2176,1.2116,-3.029,-0.483,2.692,0.85043323270,0.15825900390,0.0000,2.359
600,4162685.0886928188,664337.9957264703,4770530.6055069417,-1.6661,-0.2659,1.4809,-3.029,-0.483,2.692,-0.000,-0.000,-0.000,0.85043326473,0.15825900390,0.0000000009,0.0000000000,0.0000000000,0.0000000000,0.000000,-0.000000,0.000000,-0.0000,-0.0000,0.0000,4162685.0887,664337.9957,4770530.6055,-1.6661,-0.2659,1.4809,-3.029,-0.483,2.692,0.85043326473,0.15825900390,0.0000,2.359
700,4162684.9069358986,664337.9667192248,4770530.7670557331,-1.9690,-0.3142,1.7501,-3.029,-0.483,2.692,-0.000,-0.000,-0.000,0.85043330317,0.15825900390,0.0000000000,0.0000000000,0.0000000000,0.0000000000,0.000000,-0.000000,0.000000,-0.0000,-0.0000,0.0000,4162684.9069,664337.9667,4770530.7671,-1.9690,-0.3142,1.7501,-3.029,-0.483,2.692,0.85043330317,0.15825900390,0.0000,2.359
800,4162684.6948861508,664337.9328774372,4770530.9555293145,-2.2720,-0.3626,2.0194,-3.029,-0.483,2.692,-0.000,-0.000,-0.000,0.85043334801,0.15825900390,0.0000000000,0.0000000000,0.0000000000,0.0000000000,0.000000,-0.000000,0.000000,0.0000,-0.0000,0.0000,4162684.6949,664337.9329,4770530.9555,-2.2720,-0.3626,2.0194,-3.029,-0.483,2.692,0.85043334801,0.15825900390,0.0000,2.359
900,4162684.4525435716,664337.8942011070,4770531.1709276810,-2.5749,-0.4109,2.2886,-3.029,-0.483,2.692,-0.000,-0.000,-0.000,0.85043339926,0.15825900390,0.0000000000,-0.0000000000,0.0000000000,0.0000000000,-0.000000,-0.000001,0.000000,0.0000,-0.0000,0.0000,4162684.4525,664337.8942,4770531.1709,-2.5749,-0.4109,2.2886,-3.029,-0.483,2.692,0.85043339926,0.15825900390,0.0000,2.359
1000,4162684.1799081569,664337.8506902333,4770531.4132508291,-2.8778,-0.4593,2.5579,-3.029,-0.483,2.692,-0.000,-0.000,-0.000,0.85043345691,0.15825900390,0.0000000009,0.0000000000,0.0000000000,0.0000000000,0.000000,-0.000001,0.000000,0.0000,-0.0000,0.0000,4162684.1799,664337.8507,4770531.4133,-2.8778,-0.4593,2.5579,-3.029,-0.483,2.692,0.85043345691,0.15825900390,0.0000,2.359
1100,4162683.8769799019,664337.8023448156,4770531.6824987521,-3.1807,-0.5076,2.8271,-3.029,-0.483,2.692,-0.000,-0.000,-0.000,0.85043352097,0.15825900390,0.0000000009,0.0000000000,0.0000000000,0.0000000000,0.000000,-0.000001,0.000000,-0.0000,-0.0000,-0.0000,4162683.8770,664337.8023,4770531.6825,-3.1807,-0.5076,2.8271,-3.029,-0.483,2.692,0.85043352097,0.15825900390,0.0000,2.359
1200,4162683.5437588021,664337.7491648529,4770531.9786714455,-3.4837,-0.5560,3.0964,-3.029,-0.483,2.692,-0.000,-0.000,-0.000,0.85043359144,0.15825900390,0.0000000009,-0.0000000000,0.0000000000,0.0000000000,-0.000000,-0.000001,0.000000,-0.0000,-0.0000,0.0000,4162683.5438,664337.7492,4770531.9787,-3.4837,-0.5560,3.0964,-3.029,-0.483,2.692,0.85043359144,0.15825900390,0.0000,2.359
1300,4162683.1802448514,664337.6911503444,4770532.3017689018,-3.7866,-0.6043,3.3656,-3.029,-0.483,2.692,-0.000,-0.000,-0.000,0.85043366831,0.15825900390,0.0000000000,0.0000000000,0.0000000000,0.0000000000,0.000000,-0.000001,0.000000,-0.0000,-0.0000,0.0000,4162683.1802,664337.6912,4770532.3018,-3.7866,-0.6043,3.3656,-3.029,-0.483,2.692,0.85043366831,0.15825900390,0.0000,2.359
1400,4162682.7864380437,664337.6283012892,4770532.6517911144,-4.0895,-0.6527,3.6348,-3.029,-0.483,2.692,-0.000,-0.000,-0.000,0.85043375159,0.15825900390,0.0000000009,-0.0000000000,0.0000000000,0.0000000000,-0.000000,-0.000001,0.000000,0.0000,-0.0000,0.0000,4162682.7864,664337.6283,4770532.6518,-4.0895,-0.6527,3.6348,-3.029,-0.483,2.692,0.85043375159,0.15825900390,0.0000,2.359
1500,4162682.3623383725,664337.5606176860,4770533.0287380749,-4.3925,-0.7010,3.9041,-3.029,-0.483,2.692,-0.000,-0.000,-0.000,0.85043384128,0.15825900390,-0.0000000009,0.0000000000,0.0000000000,0.0000000000,0.000000,-0.000001,0.000000,-0.0000,-0.0000,0.0000,4162682.3623,664337.5606,4770533.0287,-4.3925,-0.7010,3.9041,-3.029,-0.483,2.692,0.85043384128,0.15825900390,-0.0000,2.359
1600,4162681.9079458308,664337.4880995339,4770533.4326097760,-4.6954,-0.7494,4.1733,-3.029,-0.483,2.692,-0.000,-0.000,-0.000,0.85043393737,0.15825900390,0.0000000009,0.0000000000,0.0000000000,0.0000000000,0.000000,-0.000001,0.000000,-0.0000,-0.0000,0.0000,4162681.9079,664337.4881,4770533.4326,-4.6954,-0.7494,4.1733,-3.029,-0.483,2.692,0.85043393737,0.15825900390,0.0000,2.359
1700,4162681.4232604108,664337.4107468316,4770533.8634062083,-4.9983,-0.7977,4.4426,-3.029,-0.483,2.692,-0.000,-0.000,-0.000,0.85043403986,0.15825900390,0.0000000009,0.0000000000,0.0000000000,0.0000000000,0.000000,-0.000001,0.000000,-0.0000,-0.0000,0.0000,4162681.4233,664337.4107,4770533.8634,-4.9983,-0.7977,4.4426,-3.029,-0.483,2.692,0.85043403986,0.15825900390,0.0000,2.359
1800,4162680.9082821039,664337.3285595777,4770534.3211273625,-5.3012,-0.8460,4.7118,-3.029,-0.483,2.692,-0.000,-0.000,-0.000,0.85043414877,0.15825900390,0.0000000009,0.0000000000,0.0000000000,0.0000000000,0.000000,-0.000001,0.000000,-0.0000,-0.0000,0.0000,4162680.9083,664337.3286,4770534.3211,-5.3012,-0.8460,4.7118,-3.029,-0.483,2.692,0.85043414877,0.15825900390,0.0000,2.359
1900,4162680.3630109020,664337.2415377710,4770534.8057732284,-5.6042,-0.8944,4.9811,-3.029,-0.483,2.692,-0.000,-0.000,-0.000,0.85043426407,0.15825900390,0.0000000009,0.0000000000,0.0000000000,0.0000000000,0.000000,-0.000001,0.000000,-0.0000,-0.0000,-0.0000,4162680.3630,664337.2415,4770534.8058,-5.6042,-0.8944,4.9811,-3.029,-0.483,2.692,0.85043426407,0.15825900390,0.0000,2.359
2000,4162679.7874467955,664337.1496814098,4770535.3173437957,-5.9071,-0.9427,5.2503,-3.029,-0.483,2.692,-0.000,-0.000,-0.000,0.85043438579,0.15825900390,0.0000000019,-0.0000000000,0.0000000000,0.0000000000,-0.000000,-0.000001,0.000000,0.0000,-0.0000,-0.0000,4162679.7874,664337.1497,4770535.3173,-5.9071,-0.9427,5.2503,-3.029,-0.483,2.692,0.85043438579,0.15825900390,0.0000,2.359
2100,4162679.1815897753,664337.0529904928,4770535.8558390532,-6.2100,-0.9911,5.5196,-3.029,-0.483,2.692,-0.000,-0.000,-0.000,0.85043451391,0.15825900390,0.0000000009,-0.0000000000,0.0000000000,0.0000000000,-0.000000,-0.000001,0.000000,-0.0000,-0.0000,0.0000,4162679.1816,664337.0530,4770535.8558,-6.2100,-0.9911,5.5196,-3.029,-0.483,2.692,0.85043451391,0.15825900390,0.0000,2.359
2200,4162678.5454398305,664336.9514650182,4770536.4212589888,-6.5130,-1.0394,5.7888,-3.029,-0.483,2.692,-0.000,-0.000,-0.000,0.85043464844,0.15825900390,0.0000000009,0.0000000000,0.0000000000,0.0000000000,0.000000,-0.000001,0.000000,-0.0000,-0.0000,0.0000,4162678.5454,664336.9515,4770536.4213,-6.5130,-1.0394,5.7888,-3.029,-0.483,2.692,0.85043464844,0.15825900390,0.0000,2.359
2300,4162677.8789969506,664336.8451049844,4770537.0136035904,-6.8159,-1.0878,6.0581,-3.029,-0.483,2.692,-0.000,-0.000,-0.000,0.85043478937,0.15825900390,0.0000000028,0.0000000000,0.0000000000,0.0000000000,0.000000,-0.000001,0.000000,-0.0000,-0.0000,-0.0000,4162677.8790,664336.8451,4770537.0136,-6.8159,-1.0878,6.0581,-3.029,-0.483,2.692,0.85043478937,0.15825900390,0.0000,2.359
2400,4162677.1822611243,664336.7339103894,4770537.6328728441,-7.1188,-1.1361,6.3273,-3.029,-0.483,2.692,-0.000,-0.000,-0.000,0.85043493671,0.15825900390,0.0000000019,-0.0000000000,0.0000000000,0.0000000000,-0.000000,-0.000002,0.000000,-0.0000,-0.0000,0.0000,4162677.1823,664336.7339,4770537.6329,-7.1188,-1.1361,6.3273,-3.029,-0.483,2.692,0.85043493671,0.15825900390,0.0000,2.359
2500,4162676.4552323399,664336.6178812315,4770538.2790667377,-7.4218,-1.1845,6.5966,-3.029,-0.483,2.692,-0.000,-0.000,-0.000,0.85043509045,0.15825900390,0.0000000009,0.0000000000,0.0000000000,0.0000000000,0.000000,-0.000002,0.000000,0.0000,-0.0000,0.0000,4162676.4552,664336.6179,4770538.2791,-7.4218,-1.1845,6.5966,-3.029,-0.483,2.692,0.85043509045,0.15825900390,0.0000,2.359
2600,4162675.6979105854,664336.4970175087,4770538.9521852564,-7.7247,-1.2328,6.8658,-3.029,-0.483,2.692,-0.000,-0.000,-0.000,0.85043525060,0.15825900390,0.0000000009,-0.0000000000,0.0000000000,0.0000000000,-0.000000,-0.000002,0.000000,0.0000,-0.0000,0.0000,4162675.6979,664336.4970,4770538.9522,-7.7247,-1.2328,6.8658,-3.029,-0.483,2.692,0.85043525060,0.15825900390,0.0000,2.359
2700,4162674.9102958478,664336.3713192190,4770539.6522283852,-8.0276,-1.2812,7.1351,-3.029,-0.483,2.692,-0.000,-0.000,-0.000,0.85043541716,0.15825900390,0.0000000019,-0.0000000000,0.0000000000,0.0000000000,-0.000000,-0.000002,0.000000,0.0000,-0.0000,0.0000,4162674.9103,664336.3713,4770539.6522,-8.0276,-1.2812,7.1351,-3.029,-0.483,2.692,0.85043541716,0.15825900390,0.0000,2.359
2800,4162674.0923881135,664336.2407863602,4770540.3791961093,-8.3305,-1.3295,7.4043,-3.029,-0.483,2.692,-0.000,-0.000,-0.000,0.85043559012,0.15825900390,0.0000000000,0.0000000000,0.0000000000,0.0000000000,0.000000,-0.000002,0.000000,0.0000,-0.0000,0.0000,4162674.0924,664336.2408,4770540.3792,-8.3305,-1.3295,7.4043,-3.029,-0.483,2.692,0.85043559012,0.15825900390,0.0000,2.359
2900,4162673.2441873690,664336.1054189302,4770541.1330884127,-8.6335,-1.3778,7.6735,-3.029,-0.483,2.692,-0.000,-0.000,-0.000,0.85043576949,0.15825900390,0.0000000000,0.0000000000,0.0000000000,0.0000000000,0.000000,-0.000002,0.000000,0.0000,-0.0000,0.0000,4162673.2442,664336.1054,4770541.1331,-8.6335,-1.3778,7.6735,-3.029,-0.483,2.692,0.85043576949,0.15825900390,0.0000,2.359
3000,4162672.3656936004,664335.9652169266,4770541.9139052788,-8.9364,-1.4262,7.9428,-3.029,-0.483,2.692,-0.000,-0.000,-0.000,0.85043595527,0.15825900390,0.0000000009,0.0000000000,0.0000000000,0.0000000000,0.000000,-0.000002,0.000000,-0.0000,-0.0000,0.0000,4162672.3657,664335.9652,4770541.9139,-8.9364,-1.4262,7.9428,-3.029,-0.483,2.692,0.85043595527,0.15825900390,0.0000,2.359
3100,4162671.4569067922,664335.8201803472,4770542.7216466907,-9.2393,-1.4745,8.2120,-3.029,-0.483,2.692,-0.000,-0.000,-0.000,0.85043614745,0.15825900390,0.0000000009,-0.0000000000,0.0000000000,0.0000000000,-0.000000,-0.000002,0.000000,0.0000,-0.0000,0.0000,4162671.4569,664335.8202,4770542.7216,-9.2393,-1.4745,8.2120,-3.029,-0.483,2.692,0.85043614745,0.15825900390,0.0000,2.359
3200,4162670.5178269297,664335.6703091894,4770543.5563126309,-9.5423,-1.5229,8.4813,-3.029,-0.483,2.692,-0.000,-0.000,-0.000,0.85043634604,0.15825900390,0.0000000009,-0.0000000000,0.0000000000,0.0000000000,-0.000000,-0.000002,0.000000,0.0000,-0.0000,0.0000,4162670.5178,664335.6703,4770543.5563,-9.5423,-1.5229,8.4813,-3.029,-0.483,2.692,0.85043634604,0.15825900390,0.0000,2.359
3300,4162669.5484539964,664335.5156034507,4770544.4179030806,-9.8452,-1.5712,8.7505,-3.029,-0.483,2.692,-0.000,-0.000,-0.000,0.85043655103,0.15825900390,0.0000000009,0.0000000000,0.0000000000,0.0000000000,0.000000,-0.000002,0.000000,0.0000,-0.0000,-0.0000,4162669.5485,664335.5156,4770544.4179,-9.8452,-1.5712,8.7505,-3.029,-0.483,2.692,0.85043655103,0.15825900390,0.0000,2.359
3400,4162668.5487879761,664335.3560631286,4770545.3064180212,-10.1481,-1.6196,9.0198,-3.029,-0.483,2.692,-0.000,-0.000,-0.000,0.85043676243,0.15825900390,0.0000000019,-0.0000000000,0.0000000000,0.0000000000,-0.000000,-0.000002,0.000000,0.0000,-0.0000,0.0000,4162668.5488,664335.3561,4770545.3064,-10.1481,-1.6196,9.0198,-3.029,-0.483,2.692,0.85043676243,0.15825900390,0.0000,2.359
3500,4162667.5188288526,664335.1916882202,4770546.2218574323,-10.4511,-1.6679,9.2890,-3.029,-0.483,2.692,-0.000,-0.000,-0.000,0.85043698023,0.15825900390,0.0000000019,0.0000000000,0.0000000000,0.0000000000,0.000000,-0.000002,0.000000,-0.0000,-0.0000,0.0000,4162667.5188,664335.1917,4770546.2219,-10.4511,-1.6679,9.2890,-3.029,-0.483,2.692,0.85043698023,0.15825900390,0.0000,2.359
3600,4162666.4585766075,664335.0224787230,4770547.1642212952,-10.7540,-1.7163,9.5583,-3.029,-0.483,2.692,-0.000,-0.000,-0.000,0.85043720444,0.15825900390,0.0000000019,0.0000000000,0.0000000000,0.0000000000,0.000000,-0.000002,0.000000,-0.0000,-0.0000,0.0000,4162666.4586,664335.0225,4770547.1642,-10.7540,-1.7163,9.5583,-3.029,-0.483,2.692,0.85043720444,0.15825900390,0.0000,2.359
3700,4162665.3680312238,664334.8484346338,4770548.1335095884,-11.0569,-1.7646,9.8275,-3.029,-0.483,2.692,-0.000,-0.000,-0.000,0.85043743506,0.15825900390,0.0000000000,-0.0000000000,0.0000000000,0.0000000000,-0.000000,-0.000002,0.000000,-0.0000,-0.0000,-0.0000,4162665.3680,664334.8484,4770548.1335,-11.0569,-1.7646,9.8275,-3.029,-0.483,2.692,0.85043743506,0.15825900390,0.0000,2.359
3800,4162664.2471926827,664334.6695559500,4770549.1297222916,-11.3599,-1.8130,10.0967,-3.029,-0.483,2.692,-0.000,-0.000,-0.000,0.85043767208,0.15825900390,0.0000000028,-0.0000000000,0.0000000000,0.0000000000,-0.000000,-0.000002,0.000000,-0.0000,-0.0000,0.0000,4162664.2472,664334.6696,4770549.1297,-11.3599,-1.8130,10.0967,-3.029,-0.483,2.692,0.85043767208,0.15825900390,0.0000,2.359
3900,4162663.0960609652,664334.4858426683,4770550.1528593823,-11.6628,-1.8613,10.3660,-3.029,-0.483,2.692,-0.000,-0.000,-0.000,0.85043791551,0.15825900390,0.0000000019,0.0000000000,0.0000000000,0.0000000000,0.000000,-0.000002,0.000000,-0.0000,-0.0000,0.0000,4162663.0961,664334.4858,4770550.1529,-11.6628,-1.8613,10.3660,-3.029,-0.483,2.692,0.85043791551,0.15825900390,0.0000,2.359
4000,4162661.9146360522,664334.2972947859,4770551.2029208383,-11.9657,-1.9097,10.6352,-3.029,-0.483,2.692,-0.000,-0.000,-0.000,0.85043816535,0.15825900390,0.0000000019,0.0000000000,0.0000000000,0.0000000000,0.000000,-0.000003,0.000000,0.0000,-0.0000,0.0000,4162661.9146,664334.2973,4770551.2029,-11.9657,-1.9097,10.6352,-3.029,-0.483,2.692,0.85043816535,0.15825900390,0.0000,2.359
4100,4162660.7029179237,664334.1039122994,4770552.2799066361,-12.2686,-1.9580,10.9045,-3.029,-0.483,2.692,-0.000,-0.000,-0.000,0.85043842159,0.15825900390,0.0000000028,0.0000000000,0.0000000000,0.0000000000,0.000000,-0.000003,0.000000,0.0000,-0.0000,0.0000,4162660.7029,664334.1039,4770552.2799,-12.2686,-1.9580,10.9045,-3.029,-0.483,2.692,0.85043842159,0.15825900390,0.0000,2.359
4200,4162659.4609065591,664333.9056952056,4770553.3838167526,-12.5716,-2.0063,11.1737,-3.029,-0.483,2.692,-0.000,-0.000,-0.000,0.85043868424,0.15825900390,0.0000000019,0.0000000000,0.0000000000,0.0000000000,0.000000,-0.000003,0.000000,0.0000,-0.0000,0.0000,4162659.4609,664333.9057,4770553.3838,-12.5716,-2.0063,11.1737,-3.029,-0.483,2.692,0.85043868424,0.15825900390,0.0000,2.359
4300,4162658.1886019376,664333.7026435011,4770554.5146511635,-12.8745,-2.0547,11.4430,-3.029,-0.483,2.692,-0.000,-0.000,-0.000,0.85043895329,0.15825900390,0.0000000037,0.0000000000,0.0000000000,0.0000000000,0.000000,-0.000003,0.000000,0.0000,-0.0000,-0.0000,4162658.1886,664333.7026,4770554.5147,-12.8745,-2.0547,11.4430,-3.029,-0.483,2.692,0.85043895329,0.15825900390,0.0000,2.359
4400,4162656.8860040372,664333.4947571825,4770555.6724098446,-13.1774,-2.1030,11.7122,-3.029,-0.483,2.692,-0.000,-0.000,-0.000,0.85043922875,0.15825900390,0.0000000019,-0.0000000000,0.0000000000,0.0000000000,-0.000000,-0.000003,0.000000,0.0000,-0.0000,0.0000,4162656.8860,664333.4948,4770555.6724,-13.1774,-2.1030,11.7122,-3.029,-0.483,2.692,0.85043922875,0.15825900390,0.0000,2.359
4500,4162655.5531128366,664333.2820362465,4770556.8570927698,-13.4804,-2.1514,11.9815,-3.029,-0.483,2.692,-0.000,-0.000,-0.000,0.85043951062,0.15825900390,0.0000000028,0.0000000000,0.0000000000,0.0000000000,0.000000,-0.000003,0.000000,-0.0000,-0.0000,0.0000,4162655.5531,664333.2820,4770556.8571,-13.4804,-2.1514,11.9815,-3.029,-0.483,2.692,0.85043951062,0.15825900390,0.0000,2.359
4600,4162654.1899283133,664333.0644806892,4770558.0686999131,-13.7833,-2.1997,12.2507,-3.029,-0.483,2.692,-0.000,-0.000,-0.000,0.85043979889,0.15825900390,0.0000000028,0.0000000000,0.0000000000,0.0000000000,0.000000,-0.000003,0.000000,-0.0000,-0.0000,0.0000,4162654.1899,664333.0645,4770558.0687,-13.7833,-2.1997,12.2507,-3.029,-0.483,2.692,0.85043979889,0.15825900390,0.0000,2.359
4700,4162652.7964504440,664332.8420905072,4770559.3072312484,-14.0862,-2.2481,12.5199,-3.029,-0.483,2.692,-0.000,-0.000,-0.000,0.85044009356,0.15825900390,0.0000000019,-0.0000000000,0.0000000000,0.0000000000,-0.000000,-0.000003,0.000000,0.0000,-0.0000,0.0000,4162652.7965,664332.8421,4770559.3072,-14.0862,-2.2481,12.5199,-3.029,-0.483,2.692,0.85044009356,0.15825900390,0.0000,2.359
4800,4162651.3726792051,664332.6148656965,4770560.5726867486,-14.3892,-2.2964,12.7892,-3.029,-0.483,2.692,-0.000,-0.000,-0.000,0.85044039465,0.15825900390,0.0000000028,0.0000000000,0.0000000000,0.0000000000,0.000000,-0.000003,0.000000,-0.0000,-0.0000,-0.0000,4162651.3727,664332.6149,4770560.5727,-14.3892,-2.2964,12.7892,-3.029,-0.483,2.692,0.85044039465,0.15825900390,0.0000,2.359
4900,4162649.9186145728,664332.3828062534,4770561.8650663858,-14.6921,-2.3448,13.0584,-3.029,-0.483,2.692,30.293,4.835,-26.925,0.85044070214,0.15825900390,0.0000000019,-0.0000000000,0.0000000000,0.0000000000,-0.000000,-0.000003,0.000000,0.0000,-0.0000,0.0000,4162649.9186,664332.3828,4770561.8651,-14.6921,-2.3448,13.0584,-3.029,-0.483,2.692,0.85044070214,0.15825900390,0.0000,2.359
5000,4162648.4393053604,664332.1467179363,4770563.1798827052,-14.8436,-2.3689,13.1930,-0.000,-0.000,-0.000,14.994,2.393,-13.326,0.85044101497,0.15825900390,0.0000000028,0.0000000000,0.0000000000,0.0000000000,0.000000,-0.000003,0.000000,0.0000,-0.0000,-0.0000,4162648.4393,664332.1467,4770563.1799,-14.8436,-2.3689,13.1930,-0.000,-0.000,-0.000,0.85044101497,0.15825900390,0.0000,2.359
5100,4162646.9574458231,664331.9102226036,4770564.4969649324,-14.7686,-2.3570,13.1264,1.499,0.239,-1.333,0.000,0.000,0.000,0.85044132833,0.15825900390,0.0000000028,0.0000000000,0.0000000000,0.0000000000,0.000000,-0.000003,0.000000,0.0000,0.0000,0.0000,4162646.9574,664331.9102,4770564.4970,-14.7686,-2.3570,13.1264,1.499,0.239,-1.333,0.85044132833,0.15825900390,0.0000,2.359
5200,4162645.4880804829,664331.6757212651,4770565.8029414481,-14.6187,-2.3330,12.9931,1.499,0.239,-1.333,0.000,0.000,0.000,0.85044163906,0.15825900390,0.0000000028,0.0000000000,0.0000000000,0.0000000000,0.000000,-0.000003,0.000000,-0.0000,0.0000,0.0000,4162645.4881,664331.6757,4770565.8029,-14.6187,-2.3330,12.9931,1.499,0.239,-1.333,0.85044163906,0.15825900390,0.0000,2.359
5300,4162644.0337082720,664331.4436127344,4770567.0955912182,-14.4688,-2.3091,12.8599,1.499,0.239,-1.333,0.000,0.000,0.000,0.85044194661,0.15825900390,0.0000000037,0.0000000000,0.0000000000,0.0000000000,0.000000,-0.000003,0.000000,0.0000,0.0000,0.0000,4162644.0337,664331.4436,4770567.0956,-14.4688,-2.3091,12.8599,1.499,0.239,-1.333,0.85044194661,0.15825900390,0.0000,2.359
5400,4162642.5943292025,664331.2138970136,4770568.3749142559,-14.3188,-2.2852,12.7266,1.499,0.239,-1.333,0.000,0.000,0.000,0.85044225100,0.15825900390,0.0000000037,-0.0000000000,0.0000000000,0.0000000000,-0.000000,-0.000003,0.000000,0.0000,0.0000,0.0000,4162642.5943,664331.2139,4770568.3749,-14.3188,-2.2852,12.7266,1.499,0.239,-1.333,0.85044225100,0.15825900390,0.0000,2.359
5500,4162641.1699432866,664330.9865741044,4770569.6409105752,-14.1689,-2.2613,12.5933,1.499,0.239,-1.333,0.000,0.000,0.000,0.85044255221,0.15825900390,0.0000000028,0.0000000000,0.0000000000,0.0000000000,0.000000,-0.000003,0.000000,-0.0000,0.0000,0.0000,4162641.1699,664330.9866,4770569.6409,-14.1689,-2.2613,12.5933,1.499,0.239,-1.333,0.85044255221,0.15825900390,0.0000,2.359
5600,4162639.7605505357,664330.7616440088,4770570.8935801899,-14.0190,-2.2373,12.4601,1.499,0.239,-1.333,0.000,0.000,0.000,0.85044285025,0.15825900390,0.0000000037,0.0000000000,0.0000000000,0.0000000000,0.000000,-0.000003,0.000000,0.0000,0.0000,0.0000,4162639.7606,664330.7616,4770570.8936,-14.0190,-2.2373,12.4601,1.499,0.239,-1.333,0.85044285025,0.15825900390,0.0000,2.359
5700,4162638.3661509622,664330.5391067286,4770572.1329231132,-13.8690,-2.2134,12.3268,1.499,0.239,-1.333,0.000,0.000,0.000,0.85044314512,0.15825900390,0.0000000037,0.0000000000,0.0000000000,0.0000000000,0.000000,-0.000003,0.000000,-0.0000,0.0000,-0.0000,4162638.3662,664330.5391,4770572.1329,-13.8690,-2.2134,12.3268,1.499,0.239,-1.333,0.85044314512,0.15825900390,0.0000,2.359
5800,4162636.9867445775,664330.3189622657,4770573.3589393590,-13.7191,-2.1895,12.1935,1.499,0.239,-1.333,0.000,0.000,0.000,0.85044343682,0.15825900390,0.0000000037,-0.0000000000,0.0000000000,0.0000000000,-0.000000,-0.000003,0.000000,0.0000,0.0000,0.0000,4162636.9867,664330.3190,4770573.3589,-13.7191,-2.1895,12.1935,1.499,0.239,-1.333,0.85044343682,0.15825900390,0.0000,2.359
5900,4162635.6223313930,664330.1012106220,4770574.5716289403,-13.5692,-2.1656,12.0603,1.499,0.239,-1.333,0.000,0.000,0.000,0.85044372535,0.15825900390,0.0000000037,0.0000000000,0.0000000000,0.0000000000,0.000000,-0.000003,0.000000,0.0000,0.0000,0.0000,4162635.6223,664330.1012,4770574.5716,-13.5692,-2.1656,12.0603,1.499,0.239,-1.333,0.85044372535,0.15825900390,0.0000,2.359
6000,4162634.2729114201,664329.8858517993,4770575.7709918702,-13.4192,-2.1416,11.9270,1.499,0.239,-1.333,0.000,0.000,0.000,0.85044401071,0.15825900390,0.0000000028,-0.0000000000,0.0000000000,0.0000000000,-0.000000,-0.000003,0.000000,0.0000,0.0000,0.0000,4162634.2729,664329.8859,4770575.7710,-13.4192,-2.1416,11.9270,1.499,0.239,-1.333,0.85044401071,0.15825900390,0.0000,2.360
6100,4162632.9384846701,664329.6728857993,4770576.9570281617,-13.2693,-2.1177,11.7937,1.499,0.239,-1.333,0.000,0.000,0.000,0.85044429290,0.15825900390,0.0000000037,0.0000000000,0.0000000000,0.0000000000,0.000000,-0.000003,0.000000,-0.0000,0.0000,-0.0000,4162632.9385,664329.6729,4770576.9570,-13.2693,-2.1177,11.7937,1.499,0.239,-1.333,0.85044429290,0.15825900390,0.0000,2.360
6200,4162631.6190511542,664329.4623126239,4770578.1297378279,-13.1194,-2.0938,11.6605,1.499,0.239,-1.333,0.000,0.000,0.000,0.85044457192,0.15825900390,0.0000000019,-0.0000000000,0.0000000000,0.0000000000,-0.000000,-0.000003,0.000000,0.0000,0.0000,-0.0000,4162631.6191,664329.4623,4770578.1297,-13.1194,-2.0938,11.6605,1.499,0.239,-1.333,0.85044457192,0.15825900390,0.0000,2.360
6300,4162630.3146108831,664329.2541322747,4770579.2891208818,-12.9694,-2.0698,11.5272,1.499,0.239,-1.333,0.000,0.000,0.000,0.85044484777,0.15825900390,0.0000000037,0.0000000000,0.0000000000,0.0000000000,0.000000,-0.000003,0.000000,0.0000,0.0000,0.0000,4162630.3146,664329.2541,4770579.2891,-12.9694,-2.0698,11.5272,1.499,0.239,-1.333,0.85044484777,0.15825900390,0.0000,2.360
6400,4162629.0251638680,664329.0483447536,4770580.4351773355,-12.8195,-2.0459,11.3939,1.499,0.239,-1.333,0.000,0.000,0.000,0.85044512045,0.15825900390,0.0000000037,0.0000000000,0.0000000000,0.0000000000,0.000000,-0.000003,0.000000,0.0000,0.0000,0.0000,4162629.0252,664329.0483,4770580.4352,-12.8195,-2.0459,11.3939,1.499,0.239,-1.333,0.85044512045,0.15825900390,0.0000,2.360
6500,4162627.7507101195,664328.8449500622,4770581.5679072011,-12.6696,-2.0220,11.2607,1.499,0.239,-1.333,0.000,0.000,0.000,0.85044538995,0.15825900390,0.0000000037,0.0000000000,0.0000000000,0.0000000000,0.000000,-0.000003,0.000000,-0.0000,0.0000,0.0000,4162627.7507,664328.8450,4770581.5679,-12.6696,-2.0220,11.2607,1.499,0.239,-1.333,0.85044538995,0.15825900390,0.0000,2.360
6600,4162626.4912496484,664328.6439482024,4770582.6873104917,-12.5196,-1.9981,11.1274,1.499,0.239,-1.333,0.000,0.000,0.000,0.85044565629,0.15825900390,0.0000000037,-0.0000000000,0.0000000000,0.0000000000,-0.000000,-0.000003,0.000000,0.0000,0.0000,0.0000,4162626.4912,664328.6439,4770582.6873,-12.5196,-1.9981,11.1274,1.499,0.239,-1.333,0.85044565629,0.15825900390,0.0000,2.360
6700,4162625.2467824654,664328.4453391756,4770583.7933872193,-12.3697,-1.9741,10.9941,1.499,0.239,-1.333,0.000,0.000,0.000,0.85044591945,0.15825900390,0.0000000037,0.0000000000,0.0000000000,0.0000000000,0.000000,-0.000003,0.000000,-0.0000,0.0000,0.0000,4162625.2468,664328.4453,4770583.7934,-12.3697,-1.9741,10.9941,1.499,0.239,-1.333,0.85044591945,0.15825900390,0.0000,2.360
6800,4162624.0173085807,664328.2491229837,4770584.8861373952,-12.2198,-1.9502,10.8609,1.499,0.239,-1.333,0.000,0.000,0.000,0.85044617945,0.15825900390,0.0000000028,-0.0000000000,0.0000000000,0.0000000000,-0.000000,-0.000003,0.000000,0.0000,0.0000,0.0000,4162624.0173,664328.2491,4770584.8861,-12.2198,-1.9502,10.8609,1.499,0.239,-1.333,0.85044617945,0.15825900390,0.0000,2.360
6900,4162622.8028280041,664328.0552996281,4770585.9655610314,-12.0698,-1.9263,10.7276,1.499,0.239,-1.333,0.000,0.000,0.000,0.85044643627,0.15825900390,0.0000000037,0.0000000000,0.0000000000,0.0000000000,0.000000,-0.000003,0.000000,-0.0000,0.0000,-0.0000,4162622.8028,664328.0553,4770585.9656,-12.0698,-1.9263,10.7276,1.499,0.239,-1.333,0.85044643627,0.15825900390,0.0000,2.360
7000,4162621.6033407464,664327.8638691106,4770587.0316581400,-11.9199,-1.9023,10.5943,1.499,0.239,-1.333,0.000,0.000,0.000,0.85044668992,0.15825900390,0.0000000028,-0.0000000000,0.0000000000,0.0000000000,-0.000000,-0.000003,0.000000,-0.0000,0.0000,0.0000,4162621.6033,664327.8639,4770587.0317,-11.9199,-1.9023,10.5943,1.499,0.239,-1.333,0.85044668992,0.15825900390,0.0000,2.360
7100,4162620.4188468172,664327.6748314328,4770588.0844287323,-11.7700,-1.8784,10.4611,1.499,0.239,-1.333,0.000,0.000,0.000,0.85044694041,0.15825900390,0.0000000028,0.0000000000,0.0000000000,0.0000000000,0.000000,-0.000002,0.000000,-0.0000,0.0000,0.0000,4162620.4188,664327.6748,4770588.0844,-11.7700,-1.8784,10.4611,1.499,0.239,-1.333,0.85044694041,0.15825900390,0.0000,2.360
7200,4162619.2493462269,664327.4881865961,4770589.1238728203,-11.6200,-1.8545,10.3278,1.499,0.239,-1.333,0.000,0.000,0.000,0.85044718772,0.15825900390,0.0000000028,-0.0000000000,0.0000000000,0.0000000000,-0.000000,-0.000002,0.000000,0.0000,0.0000,0.0000,4162619.2493,664327.4882,4770589.1239,-11.6200,-1.8545,10.3278,1.499,0.239,-1.333,0.85044718772,0.15825900390,0.0000,2.360
7300,4162618.0948389848,664327.3039346022,4770590.1499904143,-11.4701,-1.8306,10.1945,1.499,0.239,-1.333,0.000,0.000,0.000,0.85044743186,0.15825900390,0.0000000019,0.0000000000,0.0000000000,0.0000000000,0.000000,-0.000002,0.000000,0.0000,0.0000,0.0000,4162618.0948,664327.3039,4770590.1500,-11.4701,-1.8306,10.1945,1.499,0.239,-1.333,0.85044743186,0.15825900390,0.0000,2.360
7400,4162616.9553251006,664327.1220754527,4770591.1627815263,-11.3202,-1.8066,10.0613,1.499,0.239,-1.333,0.000,0.000,0.000,0.85044767283,0.15825900390,0.0000000037,0.0000000000,0.0000000000,0.0000000000,0.000000,-0.000002,0.000000,0.0000,0.0000,0.0000,4162616.9553,664327.1221,4770591.1628,-11.3202,-1.8066,10.0613,1.499,0.239,-1.333,0.85044767283,0.15825900390,0.0000,2.360
7500,4162615.8308045836,664326.9426091490,4770592.1622461667,-11.1702,-1.7827,9.9280,1.499,0.239,-1.333,0.000,0.000,0.000,0.85044791063,0.15825900390,0.0000000037,0.0000000000,0.0000000000,0.0000000000,0.000000,-0.000002,0.000000,-0.0000,0.0000,-0.0000,4162615.8308,664326.9426,4770592.1622,-11.1702,-1.7827,9.9280,1.499,0.239,-1.333,0.85044791063,0.15825900390,0.0000,2.360
7600,4162614.7212774437,664326.7655356927,4770593.1483843466,-11.0203,-1.7588,9.7947,1.499,0.239,-1.333,0.000,0.000,0.000,0.85044814526,0.15825900390,0.0000000047,-0.0000000000,0.0000000000,0.0000000000,-0.000000,-0.000002,0.000000,-0.0000,0.0000,0.0000,4162614.7213,664326.7655,4770593.1484,-11.0203,-1.7588,9.7947,1.499,0.239,-1.333,0.85044814526,0.15825900390,0.0000,2.360
7700,4162613.6267436901,664326.5908550852,4770594.1211960763,-10.8704,-1.7348,9.6615,1.499,0.239,-1.333,0.000,0.000,0.000,0.85044837672,0.15825900390,0.0000000047,-0.0000000000,0.0000000000,0.0000000000,-0.000000,-0.000002,0.000000,0.0000,0.0000,0.0000,4162613.6267,664326.5909,4770594.1212,-10.8704,-1.7348,9.6615,1.499,0.239,-1.333,0.85044837672,0.15825900390,0.0000,2.360
7800,4162612.5472033317,664326.4185673279,4770595.0806813668,-10.7204,-1.7109,9.5282,1.499,0.239,-1.333,0.000,0.000,0.000,0.85044860500,0.15825900390,0.0000000047,-0.0000000000,0.0000000000,0.0000000000,-0.000000,-0.000002,0.000000,0.0000,0.0000,0.0000,4162612.5472,664326.4186,4770595.0807,-10.7204,-1.7109,9.5282,1.499,0.239,-1.333,0.85044860500,0.15825900390,0.0000,2.360
7900,4162611.4826563774,664326.2486724224,4770596.0268402286,-10.5705,-1.6870,9.3950,1.499,0.239,-1.333,0.000,0.000,0.000,0.85044883012,0.15825900390,0.0000000047,0.0000000000,0.0000000000,0.0000000000,0.000000,-0.000002,0.000000,0.0000,0.0000,0.0000,4162611.4827,664326.2487,4770596.0268,-10.5705,-1.6870,9.3950,1.499,0.239,-1.333,0.85044883012,0.15825900390,0.0000,2.360
8000,4162610.4331028364,664326.0811703700,4770596.9596726708,-10.4206,-1.6631,9.2617,1.499,0.239,-1.333,0.000,0.000,0.000,0.85044905207,0.15825900390,0.0000000037,0.0000000000,0.0000000000,0.0000000000,0.000000,-0.000002,0.000000,-0.0000,0.0000,0.0000,4162610.4331,664326.0812,4770596.9597,-10.4206,-1.6631,9.2617,1.499,0.239,-1.333,0.85044905207,0.15825900390,0.0000,2.360
8100,4162609.3985427171,664325.9160611721,4770597.8791787047,-10.2706,-1.6391,9.1284,1.499,0.239,-1.333,0.000,0.000,0.000,0.85044927084,0.15825900390,0.0000000028,0.0000000000,0.0000000000,0.0000000000,0.000000,-0.000002,0.000000,0.0000,0.0000,0.0000,4162609.3985,664325.9161,4770597.8792,-10.2706,-1.6391,9.1284,1.499,0.239,-1.333,0.85044927084,0.15825900390,0.0000,2.360
8200,4162608.3789760284,664325.7533448301,4770598.7853583405,-10.1207,-1.6152,8.9952,1.499,0.239,-1.333,0.000,0.000,0.000,0.85044948645,0.15825900390,0.0000000047,0.0000000000,0.0000000000,0.0000000000,0.000000,-0.000002,0.000000,0.0000,0.0000,0.0000,4162608.3790,664325.7533,4770598.7854,-10.1207,-1.6152,8.9952,1.499,0.239,-1.333,0.85044948645,0.15825900390,0.0000,2.360
8300,4162607.3744027787,664325.5930213454,4770599.6782115875,-9.9708,-1.5913,8.8619,1.499,0.239,-1.333,0.000,0.000,0.000,0.85044969888,0.15825900390,0.0000000047,0.0000000000,0.0000000000,0.0000000000,0.000000,-0.000002,0.000000,-0.0000,0.0000,0.0000,4162607.3744,664325.5930,4770599.6782,-9.9708,-1.5913,8.8619,1.499,0.239,-1.333,0.85044969888,0.15825900390,0.0000,2.360
8400,4162606.3848229768,664325.4350907194,4770600.5577384550,-9.8208,-1.5673,8.7286,1.499,0.239,-1.333,0.000,0.000,0.000,0.85044990815,0.15825900390,0.0000000047,-0.0000000000,0.0000000000,0.0000000000,-0.000000,-0.000002,0.000000,-0.0000,0.0000,-0.0000,4162606.3848,664325.4351,4770600.5577,-9.8208,-1.5673,8.7286,1.499,0.239,-1.333,0.85044990815,0.15825900390,0.0000,2.360
8500,4162605.4102366306,664325.2795529532,4770601.4239389524,-9.6709,-1.5434,8.5954,1.499,0.239,-1.333,0.000,0.000,0.000,0.85045011424,0.15825900390,0.0000000047,-0.0000000000,0.0000000000,0.0000000000,-0.000000,-0.000002,0.000000,0.0000,0.0000,-0.0000,4162605.4102,664325.2796,4770601.4239,-9.6709,-1.5434,8.5954,1.499,0.239,-1.333,0.85045011424,0.15825900390,0.0000,2.360
8600,4162604.4506437480,664325.1264080482,4770602.2768130898,-9.5210,-1.5195,8.4621,1.499,0.239,-1.333,0.000,0.000,0.000,0.85045031716,0.15825900390,0.0000000028,-0.0000000000,0.0000000000,0.0000000000,-0.000000,-0.000002,0.000000,-0.0000,0.0000,0.0000,4162604.4506,664325.1264,4770602.2768,-9.5210,-1.5195,8.4621,1.499,0.239,-1.333,0.85045031716,0.15825900390,0.0000,2.360
8700,4162603.5060443375,664324.9756560058,4770603.1163608767,-9.3710,-1.4956,8.3288,1.499,0.239,-1.333,0.000,0.000,0.000,0.85045051691,0.15825900390,0.0000000047,-0.0000000000,0.0000000000,0.0000000000,-0.000000,-0.000002,0.000000,0.0000,0.0000,0.0000,4162603.5060,664324.9757,4770603.1164,-9.3710,-1.4956,8.3288,1.499,0.239,-1.333,0.85045051691,0.15825900390,0.0000,2.360
8800,4162602.5764384065,664324.8272968271,4770603.9425823214,-9.2211,-1.4716,8.1956,1.499,0.239,-1.333,0.000,0.000,0.000,0.85045071349,0.15825900390,0.0000000047,0.0000000000,0.0000000000,0.0000000000,0.000000,-0.000002,0.000000,0.0000,0.0000,0.0000,4162602.5764,664324.8273,4770603.9426,-9.2211,-1.4716,8.1956,1.499,0.239,-1.333,0.85045071349,0.15825900390,0.0000,2.360
8900,4162601.6618259633,664324.6813305134,4770604.7554774331,-9.0712,-1.4477,8.0623,1.499,0.239,-1.333,0.000,0.000,0.000,0.85045090690,0.15825900390,0.0000000037,-0.0000000000,0.0000000000,0.0000000000,-0.000000,-0.000002,0.000000,0.0000,0.0000,0.0000,4162601.6618,664324.6813,4770604.7555,-9.0712,-1.4477,8.0623,1.499,0.239,-1.333,0.85045090690,0.15825900390,0.0000,2.360
9000,4162600.7622070150,664324.5377570660,4770605.5550462203,-8.9212,-1.4238,7.9291,1.499,0.239,-1.333,0.000,0.000,0.000,0.85045109714,0.15825900390,0.0000000028,0.0000000000,0.0000000000,0.0000000000,0.000000,-0.000002,0.000000,0.0000,0.0000,0.0000,4162600.7622,664324.5378,4770605.5550,-8.9212,-1.4238,7.9291,1.499,0.239,-1.333,0.85045109714,0.15825900390,0.0000,2.360
9100,4162599.8775815694,664324.3965764859,4770606.3412886923,-8.7713,-1.3998,7.7958,1.499,0.239,-1.333,0.000,0.000,0.000,0.85045128421,0.15825900390,0.0000000028,0.0000000000,0.0000000000,0.0000000000,0.000000,-0.000002,0.000000,-0.0000,0.0000,0.0000,4162599.8776,664324.3966,4770606.3413,-8.7713,-1.3998,7.7958,1.499,0.239,-1.333,0.85045128421,0.15825900390,0.0000,2.360
9200,4162599.0079496340,664324.2577887744,4770607.1142048575,-8.6214,-1.3759,7.6625,1.499,0.239,-1.333,0.000,0.000,0.000,0.85045146811,0.15825900390,0.0000000019,0.0000000000,0.0000000000,0.0000000000,0.000000,-0.000002,0.000000,-0.0000,0.0000,0.0000,4162599.0079,664324.2578,4770607.1142,-8.6214,-1.3759,7.6625,1.499,0.239,-1.333,0.85045146811,0.15825900390,0.0000,2.360
9300,4162598.1533112158,664324.1213939327,4770607.8737947242,-8.4714,-1.3520,7.5293,1.499,0.239,-1.333,0.000,0.000,0.000,0.85045164884,0.15825900390,0.0000000028,0.0000000000,0.0000000000,0.0000000000,0.000000,-0.000002,0.000000,0.0000,0.0000,0.0000,4162598.1533,664324.1214,4770607.8738,-8.4714,-1.3520,7.5293,1.499,0.239,-1.333,0.85045164884,0.15825900390,0.0000,2.360
9400,4162597.3136663223,664323.9873919619,4770608.6200583009,-8.3215,-1.3281,7.3960,1.499,0.239,-1.333,0.000,0.000,0.000,0.85045182640,0.15825900390,0.0000000028,0.0000000000,0.0000000000,0.0000000000,0.000000,-0.000002,0.000000,-0.0000,0.0000,0.0000,4162597.3137,664323.9874,4770608.6201,-8.3215,-1.3281,7.3960,1.499,0.239,-1.333,0.85045182640,0.15825900390,0.0000,2.360
9500,4162596.4890149599,664323.8557828630,4770609.3529955950,-8.1715,-1.3041,7.2627,1.499,0.239,-1.333,0.000,0.000,0.000,0.85045200078,0.15825900390,0.0000000037,0.0000000000,0.0000000000,0.0000000000,0.000000,-0.000002,0.000000,-0.0000,0.0000,0.0000,4162596.4890,664323.8558,4770609.3530,-8.1715,-1.3041,7.2627,1.499,0.239,-1.333,0.85045200078,0.15825900390,0.0000,2.360
9600,4162595.6793571361,664323.7265666373,4770610.0726066148,-8.0216,-1.2802,7.1295,1.499,0.239,-1.333,0.000,0.000,0.000,0.85045217200,0.15825900390,0.0000000047,0.0000000000,0.0000000000,0.0000000000,0.000000,-0.000002,0.000000,0.0000,0.0000,0.0000,4162595.6794,664323.7266,4770610.0726,-8.0216,-1.2802,7.1295,1.499,0.239,-1.333,0.85045217200,0.15825900390,0.0000,2.360
9700,4162594.8846928575,664323.5997432858,4770610.7788913678,-7.8717,-1.2563,6.9962,1.499,0.239,-1.333,0.000,0.000,0.000,0.85045234004,0.15825900390,0.0000000037,-0.0000000000,0.0000000000,0.0000000000,-0.000000,-0.000002,0.000000,0.0000,0.0000,0.0000,4162594.8847,664323.5997,4770610.7789,-7.8717,-1.2563,6.9962,1.499,0.239,-1.333,0.85045234004,0.15825900390,0.0000,2.360
9800,4162594.1050221305,664323.4753128096,4770611.4718498625,-7.7217,-1.2323,6.8630,1.499,0.239,-1.333,0.000,0.000,0.000,0.85045250492,0.15825900390,0.0000000037,0.0000000000,0.0000000000,0.0000000000,0.000000,-0.000002,0.000000,-0.0000,0.0000,0.0000,4162594.1050,664323.4753,4770611.4718,-7.7217,-1.2323,6.8630,1.499,0.239,-1.333,0.85045250492,0.15825900390,0.0000,2.360
9900,4162593.3403449617,664323.3532752095,4770612.1514821053,-7.5718,-1.2084,6.7297,1.499,0.239,-1.333,0.000,0.000,0.000,0.85045266662,0.15825900390,0.0000000047,0.0000000000,0.0000000000,0.0000000000,0.000000,-0.000002,0.000000,-0.0000,0.0000,0.0000,4162593.3403,664323.3533,4770612.1515,-7.5718,-1.2084,6.7297,1.499,0.239,-1.333,0.85045266662,0.15825900390,0.0000,2.360
10000,4162592.5906613576,664323.2336304869,4770612.8177881045,-7.4219,-1.1845,6.5964,1.499,0.239,-1.333,0.000,0.000,0.000,0.85045282516,0.15825900390,0.0000000047,-0.0000000000,0.0000000000,0.0000000000,-0.000000,-0.000002,0.000000,0.0000,0.0000,0.0000,4162592.5907,664323.2336,4770612.8178,-7.4219,-1.1845,6.5964,1.499,0.239,-1.333,0.85045282516,0.15825900390,0.0000,2.360
10100,4162591.8559713243,664323.1163786425,4770613.4707678668,-7.2719,-1.1606,6.4632,1.499,0.239,-1.333,0.000,0.000,0.000,0.85045298052,0.15825900390,0.0000000028,0.0000000000,0.0000000000,0.0000000000,0.000000,-0.000002,0.000000,-0.0000,0.0000,0.0000,4162591.8560,664323.1164,4770613.4708,-7.2719,-1.1606,6.4632,1.499,0.239,-1.333,0.85045298052,0.15825900390,0.0000,2.360
10200,4162591.1362748677,664323.0015196773,4770614.1104213996,-7.1220,-1.1366,6.3299,1.499,0.239,-1.333,0.000,0.000,0.000,0.85045313271,0.15825900390,0.0000000037,-0.0000000000,0.0000000000,0.0000000000,-0.000000,-0.000002,0.000000,-0.0000,0.0000,-0.0000,4162591.1363,664323.0015,4770614.1104,-7.1220,-1.1366,6.3299,1.499,0.239,-1.333,0.85045313271,0.15825900390,0.0000,2.360
10300,4162590.4315719944,664322.8890535925,4770614.7367487093,-6.9721,-1.1127,6.1966,1.499,0.239,-1.333,0.000,0.000,0.000,0.85045328173,0.15825900390,0.0000000019,0.0000000000,0.0000000000,0.0000000000,0.000000,-0.000001,0.000000,-0.0000,0.0000,-0.0000,4162590.4316,664322.8891,4770614.7367,-6.9721,-1.1127,6.1966,1.499,0.239,-1.333,0.85045328173,0.15825900390,0.0000,2.360
10400,4162589.7418627101,664322.7789803888,4770615.3497498035,-6.8221,-1.0888,6.0634,1.499,0.239,-1.333,0.000,0.000,0.000,0.85045342758,0.15825900390,0.0000000047,0.0000000000,0.0000000000,0.0000000000,0.000000,-0.000001,0.000000,0.0000,0.0000,0.0000,4162589.7419,664322.7790,4770615.3497,-6.8221,-1.0888,6.0634,1.499,0.239,-1.333,0.85045342758,0.15825900390,0.0000,2.360
10500,4162589.0671470203,664322.6713000672,4770615.9494246887,-6.6722,-1.0648,5.9301,1.499,0.239,-1.333,0.000,0.000,0.000,0.85045357026,0.15825900390,0.0000000047,0.0000000000,0.0000000000,0.0000000000,0.000000,-0.000001,0.000000,-0.0000,0.0000,0.0000,4162589.0671,664322.6713,4770615.9494,-6.6722,-1.0648,5.9301,1.499,0.239,-1.333,0.85045357026,0.15825900390,0.0000,2.360
10600,4162588.4074249309,664322.5660126286,4770616.5357733704,-6.5223,-1.0409,5.7969,1.499,0.239,-1.333,0.000,0.000,0.000,0.85045370977,0.15825900390,0.0000000037,0.0000000000,0.0000000000,0.0000000000,0.000000,-0.000001,0.000000,-0.0000,0.0000,0.0000,4162588.4074,664322.5660,4770616.5358,-6.5223,-1.0409,5.7969,1.499,0.239,-1.333,0.85045370977,0.15825900390,0.0000,2.360
10700,4162587.7626964473,664322.4631180739,4770617.1087958561,-6.3723,-1.0170,5.6636,1.499,0.239,-1.333,0.000,0.000,0.000,0.85045384611,0.15825900390,0.0000000047,0.0000000000,0.0000000000,0.0000000000,0.000000,-0.000001,0.000000,-0.0000,0.0000,0.0000,4162587.7627,664322.4631,4770617.1088,-6.3723,-1.0170,5.6636,1.499,0.239,-1.333,0.85045384611,0.15825900390,0.0000,2.360
10800,4162587.1329615749,664322.3626164040,4770617.6684921514,-6.2224,-0.9931,5.5303,1.499,0.239,-1.333,0.000,0.000,0.000,0.85045397928,0.15825900390,0.0000000037,0.0000000000,0.0000000000,0.0000000000,0.000000,-0.000001,0.000000,-0.0000,0.0000,0.0000,4162587.1330,664322.3626,4770617.6685,-6.2224,-0.9931,5.5303,1.499,0.239,-1.333,0.85045397928,0.15825900390,0.0000,2.360
10900,4162586.5182203189,664322.2645076195,4770618.2148622628,-6.0724,-0.9691,5.3971,1.499,0.239,-1.333,0.000,0.000,0.000,0.85045410927,0.15825900390,0.0000000037,-0.0000000000,0.0000000000,0.0000000000,-0.000000,-0.000001,0.000000,0.0000,0.0000,0.0000,4162586.5182,664322.2645,4770618.2149,-6.0724,-0.9691,5.3971,1.499,0.239,-1.333,0.85045410927,0.15825900390,0.0000,2.360
11000,4162585.9184726845,664322.1687917216,4770618.7479061959,-5.9225,-0.9452,5.2638,1.499,0.239,-1.333,0.000,0.000,0.000,0.85045423610,0.15825900390,0.0000000056,0.0000000000,0.0000000000,0.0000000000,0.000000,-0.000001,0.000000,-0.0000,0.0000,-0.0000,4162585.9185,664322.1688,4770618.7479,-5.9225,-0.9452,5.2638,1.499,0.239,-1.333,0.85045423610,0.15825900390,0.0000,2.360
11100,4162585.3337186766,664322.0754687107,4770619.2676239563,-5.7726,-0.9213,5.1305,1.499,0.239,-1.333,0.000,0.000,0.000,0.85045435976,0.15825900390,0.0000000047,-0.0000000000,0.0000000000,0.0000000000,-0.000000,-0.000001,0.000000,0.0000,0.0000,0.0000,4162585.3337,664322.0755,4770619.2676,-5.7726,-0.9213,5.1305,1.499,0.239,-1.333,0.85045435976,0.15825900390,0.0000,2.360
11200,4162584.7639583000,664321.9845385879,4770619.7740155496,-5.6226,-0.8973,4.9973,1.499,0.239,-1.333,0.000,0.000,0.000,0.85045448024,0.15825900390,0.0000000047,0.0000000000,0.0000000000,0.0000000000,0.000000,-0.000001,0.000000,0.0000,0.0000,0.0000,4162584.7640,664321.9845,4770619.7740,-5.6226,-0.8973,4.9973,1.499,0.239,-1.333,0.85045448024,0.15825900390,0.0000,2.360
11300,4162584.2091915598,664321.8960013537,4770620.2670809813,-5.4727,-0.8734,4.8640,1.499,0.239,-1.333,0.000,0.000,0.000,0.85045459756,0.15825900390,0.0000000056,0.0000000000,0.0000000000,0.0000000000,0.000000,-0.000001,0.000000,-0.0000,0.0000,0.0000,4162584.2092,664321.8960,4770620.2671,-5.4727,-0.8734,4.8640,1.499,0.239,-1.333,0.85045459756,0.15825900390,0.0000,2.360
11400,4162583.6694184607,664321.8098570091,4770620.7468202570,-5.3228,-0.8495,4.7308,1.499,0.239,-1.333,0.000,0.000,0.000,0.85045471170,0.15825900390,0.0000000047,-0.0000000000,0.0000000000,0.0000000000,-0.000000,-0.000001,0.000000,0.0000,0.0000,0.0000,4162583.6694,664321.8099,4770620.7468,-5.3228,-0.8495,4.7308,1.499,0.239,-1.333,0.85045471170,0.15825900390,0.0000,2.360
11500,4162583.1446390068,664321.7261055546,4770621.2132333824,-5.1728,-0.8256,4.5975,1.499,0.239,-1.333,0.000,0.000,0.000,0.85045482267,0.15825900390,0.0000000047,0.0000000000,0.0000000000,0.0000000000,0.000000,-0.000001,0.000000,-0.0000,0.0000,0.0000,4162583.1446,664321.7261,4770621.2132,-5.1728,-0.8256,4.5975,1.499,0.239,-1.333,0.85045482267,0.15825900390,0.0000,2.360
11600,4162582.6348532024,664321.6447469910,4770621.6663203621,-5.0229,-0.8016,4.4642,1.499,0.239,-1.333,0.000,0.000,0.000,0.85045493047,0.15825900390,0.0000000047,-0.0000000000,0.0000000000,0.0000000000,-0.000000,-0.000001,0.000000,0.0000,0.0000,0.0000,4162582.6349,664321.6447,4770621.6663,-5.0229,-0.8016,4.4642,1.499,0.239,-1.333,0.85045493047,0.15825900390,0.0000,2.360
11700,4162582.1400610521,664321.5657813189,4770622.1060812008,-4.8730,-0.7777,4.3310,1.499,0.239,-1.333,0.000,0.000,0.000,0.85045503511,0.15825900390,0.0000000047,0.0000000000,0.0000000000,0.0000000000,0.000000,-0.000001,0.000000,-0.0000,0.0000,-0.0000,4162582.1401,664321.5658,4770622.1061,-4.8730,-0.7777,4.3310,1.499,0.239,-1.333,0.85045503511,0.15825900390,0.0000,2.360
11800,4162581.6602625600,664321.4892085391,4770622.5325159030,-4.7230,-0.7538,4.1977,1.499,0.239,-1.333,0.000,0.000,0.000,0.85045513657,0.15825900390,0.0000000047,-0.0000000000,0.0000000000,0.0000000000,-0.000000,-0.000001,0.000000,-0.0000,0.0000,0.0000,4162581.6603,664321.4892,4770622.5325,-4.7230,-0.7538,4.1977,1.499,0.239,-1.333,0.85045513657,0.15825900390,0.0000,2.360
11900,4162581.1954577300,664321.4150286522,4770622.9456244744,-4.5731,-0.7298,4.0645,1.499,0.239,-1.333,0.000,0.000,0.000,0.85045523486,0.15825900390,0.0000000056,0.0000000000,0.0000000000,0.0000000000,0.000000,-0.000001,0.000000,0.0000,0.0000,0.0000,4162581.1955,664321.4150,4770622.9456,-4.5731,-0.7298,4.0645,1.499,0.239,-1.333,0.85045523486,0.15825900390,0.0000,2.360
12000,4162580.7456465662,664321.3432416588,4770623.3454069188,-4.4231,-0.7059,3.9312,1.499,0.239,-1.333,0.000,-0.000,0.000,0.85045532998,0.15825900390,0.0000000047,0.0000000000,0.0000000000,0.0000000000,0.000000,-0.000001,0.000000,0.0000,0.0000,0.0000,4162580.7456,664321.3432,4770623.3454,-4.4231,-0.7059,3.9312,1.499,0.239,-1.333,0.85045532998,0.15825900390,0.0000,2.360
12100,4162580.3108290718,664321.2738475595,4770623.7318632398,-4.2732,-0.6820,3.7979,1.499,0.239,-1.333,0.000,0.000,0.000,0.85045542193,0.15825900390,0.0000000037,0.0000000000,0.0000000000,0.0000000000,0.000000,-0.000001,0.000000,-0.0000,0.0000,-0.0000,4162580.3108,664321.2738,4770623.7319,-4.2732,-0.6820,3.7979,1.499,0.239,-1.333,0.85045542193,0.15825900390,0.0000,2.360
12200,4162579.8910052511,664321.2068463548,4770624.1049934430,-4.1233,-0.6580,3.6647,1.499,0.239,-1.333,0.000,0.000,0.000,0.85045551071,0.15825900390,0.0000000047,-0.0000000000,0.0000000000,0.0000000000,-0.000000,-0.000001,0.000000,0.0000,0.0000,0.0000,4162579.8910,664321.2068,4770624.1050,-4.1233,-0.6580,3.6647,1.499,0.239,-1.333,0.85045551071,0.15825900390,0.0000,2.360
12300,4162579.4861751073,664321.1422380453,4770624.4647975313,-3.9733,-0.6341,3.5314,1.499,0.239,-1.333,0.000,0.000,0.000,0.85045559631,0.15825900390,0.0000000047,0.0000000000,0.0000000000,0.0000000000,0.000000,-0.000001,0.000000,0.0000,0.0000,0.0000,4162579.4862,664321.1422,4770624.4648,-3.9733,-0.6341,3.5314,1.499,0.239,-1.333,0.85045559631,0.15825900390,0.0000,2.360
12400,4162579.0963386437,664321.0800226317,4770624.8112755092,-3.8234,-0.6102,3.3981,1.499,0.239,-1.333,0.000,0.000,0.000,0.85045567875,0.15825900390,0.0000000037,0.0000000000,0.0000000000,0.0000000000,0.000000,-0.000001,0.000000,0.0000,0.0000,0.0000,4162579.0963,664321.0800,4770624.8113,-3.8234,-0.6102,3.3981,1.499,0.239,-1.333,0.85045567875,0.15825900390,0.0000,2.360
12500,4162578.7214958635,664321.0202001142,4770625.1444273805,-3.6735,-0.5863,3.2649,1.499,0.239,-1.333,0.000,0.000,-0.000,0.85045575802,0.15825900390,0.0000000047,0.0000000000,0.0000000000,0.0000000000,0.000000,-0.000001,0.000000,0.0000,0.0000,0.0000,4162578.7215,664321.0202,4770625.1444,-3.6735,-0.5863,3.2649,1.499,0.239,-1.333,0.85045575802,0.15825900390,0.0000,2.360
12600,4162578.3616467700,664320.9627704936,4770625.4642531490,-3.5235,-0.5623,3.1316,1.499,0.239,-1.333,0.000,0.000,0.000,0.85045583411,0.15825900390,0.0000000047,0.0000000000,0.0000000000,0.0000000000,0.000000,-0.000001,0.000000,-0.0000,0.0000,0.0000,4162578.3616,664320.9628,4770625.4643,-3.5235,-0.5623,3.1316,1.499,0.239,-1.333,0.85045583411,0.15825900390,0.0000,2.360
12700,4162578.0167913665,664320.9077337702,4770625.7707528174,-3.3736,-0.5384,2.9984,1.499,0.239,-1.333,0.000,0.000,0.000,0.85045590704,0.15825900390,0.0000000037,0.0000000000,0.0000000000,0.0000000000,0.000000,-0.000001,0.000000,-0.0000,0.0000,0.0000,4162578.0168,664320.9077,4770625.7708,-3.3736,-0.5384,2.9984,1.499,0.239,-1.333,0.85045590704,0.15825900390,0.0000,2.360
12800,4162577.6869296553,664320.8550899446,4770626.0639263894,-3.2236,-0.5145,2.8651,1.499,0.239,-1.333,0.000,-0.000,0.000,0.85045597679,0.15825900390,0.0000000047,0.0000000000,0.0000000000,0.0000000000,0.000000,-0.000001,0.000000,0.0000,0.0000,0.0000,4162577.6869,664320.8551,4770626.0639,-3.2236,-0.5145,2.8651,1.499,0.239,-1.333,0.85045597679,0.15825900390,0.0000,2.360
12900,4162577.3720616396,664320.8048390171,4770626.3437738679,-3.0737,-0.4905,2.7318,1.499,0.239,-1.333,0.000,0.000,0.000,0.85045604338,0.15825900390,0.0000000047,-0.0000000000,0.0000000000,0.0000000000,-0.000000,-0.000001,0.000000,0.0000,0.0000,0.0000,4162577.3721,664320.8048,4770626.3438,-3.0737,-0.4905,2.7318,1.499,0.239,-1.333,0.85045604338,0.15825900390,0.0000,2.360
13000,4162577.0721873217,664320.7569809882,4770626.6102952566,-2.9238,-0.4666,2.5986,1.499,0.239,-1.333,0.000,-0.000,0.000,0.85045610679,0.15825900390,0.0000000047,0.0000000000,0.0000000000,0.0000000000,0.000000,-0.000001,0.000000,0.0000,0.0000,0.0000,4162577.0722,664320.7570,4770626.6103,-2.9238,-0.4666,2.5986,1.499,0.239,-1.333,0.85045610679,0.15825900390,0.0000,2.360
13100,4162576.7873067041,664320.7115158583,4770626.8634905582,-2.7738,-0.4427,2.4653,1.499,0.239,-1.333,0.000,-0.000,0.000,0.85045616703,0.15825900390,0.0000000047,0.0000000000,0.0000000000,0.0000000000,0.000000,-0.000001,0.000000,-0.0000,0.0000,0.0000,4162576.7873,664320.7115,4770626.8635,-2.7738,-0.4427,2.4653,1.499,0.239,-1.333,0.85045616703,0.15825900390,0.0000,2.360
13200,4162576.5174197895,664320.6684436278,4770627.1033597747,-2.6239,-0.4188,2.3321,1.499,0.239,-1.333,0.000,-0.000,0.000,0.85045622411,0.15825900390,0.0000000047,0.0000000000,0.0000000000,0.0000000000,0.000000,-0.000001,0.000000,-0.0000,0.0000,0.0000,4162576.5174,664320.6684,4770627.1034,-2.6239,-0.4188,2.3321,1.499,0.239,-1.333,0.85045622411,0.15825900390,0.0000,2.360
13300,4162576.2625265797,664320.6277642970,4770627.3299029097,-2.4740,-0.3948,2.1988,1.499,0.239,-1.333,0.000,-0.000,0.000,0.85045627801,0.15825900390,0.0000000047,0.0000000000,0.0000000000,0.0000000000,0.000000,-0.000001,0.000000,-0.0000,0.0000,-0.0000,4162576.2625,664320.6278,4770627.3299,-2.4740,-0.3948,2.1988,1.499,0.239,-1.333,0.85045627801,0.15825900390,0.0000,2.360
13400,4162576.0226270771,664320.5894778662,4770627.5431199651,-2.3240,-0.3709,2.0655,1.499,0.239,-1.333,0.000,0.000,-0.000,0.85045632874,0.15825900390,0.0000000028,0.0000000000,0.0000000000,0.0000000000,0.000000,-0.000000,0.000000,0.0000,0.0000,0.0000,4162576.0226,664320.5895,4770627.5431,-2.3240,-0.3709,2.0655,1.499,0.239,-1.333,0.85045632874,0.15825900390,0.0000,2.360
13500,4162575.7977212840,664320.5535843357,4770627.7430109438,-2.1741,-0.3470,1.9323,1.499,0.239,-1.333,0.000,-0.000,-0.000,0.85045637630,0.15825900390,0.0000000037,0.0000000000,0.0000000000,0.0000000000,0.000000,-0.000000,0.000000,0.0000,0.0000,0.0000,4162575.7977,664320.5536,4770627.7430,-2.1741,-0.3470,1.9323,1.499,0.239,-1.333,0.85045637630,0.15825900390,0.0000,2.360
13600,4162575.5878092018,664320.5200837060,4770627.9295758475,-2.0242,-0.3230,1.7990,1.499,0.239,-1.333,0.000,0.000,-0.000,0.85045642069,0.15825900390,0.0000000047,0.0000000000,0.0000000000,0.0000000000,0.000000,-0.000000,0.000000,-0.0000,0.0000,0.0000,4162575.5878,664320.5201,4770627.9296,-2.0242,-0.3230,1.7990,1.499,0.239,-1.333,0.85045642069,0.15825900390,0.0000,2.360
13700,4162575.3928908324,664320.4889759772,4770628.1028146781,-1.8742,-0.2991,1.6658,1.499,0.239,-1.333,0.000,0.000,-0.000,0.85045646190,0.15825900390,0.0000000047,-0.0000000000,0.0000000000,0.0000000000,-0.000000,-0.000000,0.000000,0.0000,0.0000,0.0000,4162575.3929,664320.4890,4770628.1028,-1.8742,-0.2991,1.6658,1.499,0.239,-1.333,0.85045646190,0.15825900390,0.0000,2.360
13800,4162575.2129661776,664320.4602611496,4770628.2627274375,-1.7243,-0.2752,1.5325,1.499,0.239,-1.333,-0.000,0.000,-0.000,0.85045649995,0.15825900390,0.0000000047,0.0000000000,0.0000000000,0.0000000000,0.000000,-0.000000,0.000000,0.0000,0.0000,0.0000,4162575.2130,664320.4603,4770628.2627,-1.7243,-0.2752,1.5325,1.499,0.239,-1.333,0.85045649995,0.15825900390,0.0000,2.360
13900,4162575.0480352389,664320.4339392234,4770628.4093141276,-1.5743,-0.2513,1.3992,1.499,0.239,-1.333,-0.000,0.000,0.000,0.85045653483,0.15825900390,0.0000000056,0.0000000000,0.0000000000,0.0000000000,0.000000,-0.000000,0.000000,-0.0000,0.0000,0.0000,4162575.0480,664320.4339,4770628.4093,-1.5743,-0.2513,1.3992,1.499,0.239,-1.333,0.85045653483,0.15825900390,0.0000,2.360
14000,4162574.8980980176,664320.4100101989,4770628.5425747493,-1.4244,-0.2273,1.2660,1.499,0.239,-1.333,0.000,-0.000,-0.000,0.85045656654,0.15825900390,0.0000000047,-0.0000000000,0.0000000000,0.0000000000,-0.000000,-0.000000,0.000000,0.0000,0.0000,0.0000,4162574.8981,664320.4100,4770628.5426,-1.4244,-0.2273,1.2660,1.499,0.239,-1.333,0.85045656654,0.15825900390,0.0000,2.360
14100,4162574.7631545146,664320.3884740764,4770628.6625093054,-1.2745,-0.2034,1.1327,1.499,0.239,-1.333,0.000,0.000,0.000,0.85045659507,0.15825900390,0.0000000047,0.0000000000,0.0000000000,0.0000000000,0.000000,-0.000000,0.000000,-0.0000,0.0000,0.0000,4162574.7632,664320.3885,4770628.6625,-1.2745,-0.2034,1.1327,1.499,0.239,-1.333,0.85045659507,0.15825900390,0.0000,2.360
14200,4162574.6432047314,664320.3693308559,4770628.7691177959,-1.1245,-0.1795,0.9995,1.499,0.239,-1.333,0.000,0.000,0.000,0.85045662044,0.15825900390,0.0000000047,0.0000000000,0.0000000000,0.0000000000,0.000000,-0.000000,0.000000,-0.0000,0.0000,-0.0000,4162574.6432,664320.3693,4770628.7691,-1.1245,-0.1795,0.9995,1.499,0.239,-1.333,0.85045662044,0.15825900390,0.0000,2.360
14300,4162574.5382486689,664320.3525805376,4770628.8624002226,-0.9746,-0.1555,0.8662,1.499,0.239,-1.333,0.000,0.000,0.000,0.85045664263,0.15825900390,0.0000000037,-0.0000000000,0.0000000000,0.0000000000,-0.000000,-0.000000,0.000000,0.0000,0.0000,0.0000,4162574.5382,664320.3526,4770628.8624,-0.9746,-0.1555,0.8662,1.499,0.239,-1.333,0.85045664263,0.15825900390,0.0000,2.360
14400,4162574.4482863280,664320.3382231216,4770628.9423565865,-0.8247,-0.1316,0.7329,1.499,0.239,-1.333,0.000,-0.000,0.000,0.85045666166,0.15825900390,0.0000000047,0.0000000000,0.0000000000,0.0000000000,0.000000,-0.000000,0.000000,-0.0000,0.0000,0.0000,4162574.4483,664320.3382,4770628.9424,-0.8247,-0.1316,0.7329,1.499,0.239,-1.333,0.85045666166,0.15825900390,0.0000,2.360
14500,4162574.3733177092,664320.3262586081,4770629.0089868885,-0.6747,-0.1077,0.5997,1.499,0.239,-1.333,0.000,0.000,-0.000,0.85045667751,0.15825900390,0.0000000037,-0.0000000000,0.0000000000,0.0000000000,-0.000000,-0.000000,0.000000,0.0000,0.0000,0.0000,4162574.3733,664320.3263,4770629.0090,-0.6747,-0.1077,0.5997,1.499,0.239,-1.333,0.85045667751,0.15825900390,0.0000,2.360
14600,4162574.3133428134,664320.3166869972,4770629.0622911295,-0.5248,-0.0838,0.4664,1.499,0.239,-1.333,0.000,-0.000,0.000,0.85045669019,0.15825900390,0.0000000047,0.0000000000,0.0000000000,0.0000000000,0.000000,-0.000000,0.000000,0.0000,0.0000,0.0000,4162574.3133,664320.3167,4770629.0623,-0.5248,-0.0838,0.4664,1.499,0.239,-1.333,0.85045669019,0.15825900390,0.0000,2.360
14700,4162574.2683616411,664320.3095082890,4770629.1022693096,-0.3748,-0.0598,0.3332,1.499,0.239,-1.333,0.000,-0.000,-0.000,0.85045669970,0.15825900390,0.0000000047,0.0000000000,0.0000000000,0.0000000000,0.000000,-0.000000,0.000000,-0.0000,0.0000,0.0000,4162574.2684,664320.3095,4770629.1023,-0.3748,-0.0598,0.3332,1.499,0.239,-1.333,0.85045669970,0.15825900390,0.0000,2.360
14800,4162574.2383741927,664320.3047224835,4770629.1289214296,-0.2249,-0.0359,0.1999,1.499,0.239,-1.333,0.000,-0.000,-0.000,0.85045670605,0.15825900390,0.0000000056,-0.0000000000,0.0000000000,0.0000000000,-0.000000,-0.000000,0.000000,0.0000,0.0000,0.0000,4162574.2384,664320.3047,4770629.1289,-0.2249,-0.0359,0.1999,1.499,0.239,-1.333,0.85045670605,0.15825900390,0.0000,2.360
14900,4162574.2233804683,664320.3023295808,4770629.1422474897,-0.0750,-0.0120,0.0666,1.499,0.239,-1.333,-14.994,-2.393,13.326,0.85045670922,0.15825900390,0.0000000037,-0.0000000000,0.0000000000,0.0000000000,-0.000000,-0.000000,0.000000,0.0000,0.0000,0.0000,4162574.2234,664320.3023,4770629.1422,-0.0750,-0.0120,0.0666,1.499,0.239,-1.333,0.85045670922,0.15825900390,0.0000,2.360
15000,4162574.2208815143,664320.3019307636,4770629.1444684993,0.0000,0.0000,-0.0000,-0.000,-0.000,0.000,-30.293,-4.835,26.924,0.85045670974,0.15825900390,0.0000000056,0.0000000000,0.0000000000,0.0000000000,-0.000000,0.000000,0.000000,0.0000,0.0000,0.0000,4162574.2209,664320.3019,4770629.1445,0.0000,0.0000,-0.0000,-0.000,-0.000,0.000,0.85045670974,0.15825900390,0.0000,2.360
15100,4162574.2158326069,664320.3011249902,4770629.1489558462,-0.1515,-0.0242,0.1346,-3.029,-0.483,2.692,-0.000,-0.000,-0.000,0.85045671081,0.15825900390,0.0000000047,0.0000000000,0.0000000000,0.0000000000,0.000000,-0.000000,0.000000,0.0000,-0.0000,-0.0000,4162574.2158,664320.3011,4770629.1490,-0.1515,-0.0242,0.1346,-3.029,-0.483,2.692,0.85045671081,0.15825900390,0.0000,2.360
15200,4162574.1855391641,664320.2962903499,4770629.1758799264,-0.4544,-0.0725,0.4039,-3.029,-0.483,2.692,-0.000,-0.000,-0.000,0.85045671722,0.15825900390,0.0000000047,-0.0000000000,0.0000000000,0.0000000000,-0.000000,-0.000000,0.000000,0.0000,-0.0000,0.0000,4162574.1855,664320.2963,4770629.1759,-0.4544,-0.0725,0.4039,-3.029,-0.483,2.692,0.85045671722,0.15825900390,0.0000,2.360
15300,4162574.1249522776,664320.2866210692,4770629.2297280859,-0.7573,-0.1209,0.6731,-3.029,-0.483,2.692,0.000,-0.000,0.000,0.85045673003,0.15825900390,0.0000000047,0.0000000000,0.0000000000,0.0000000000,0.000000,-0.000000,0.000000,-0.0000,-0.0000,0.0000,4162574.1250,664320.2866,4770629.2297,-0.7573,-0.1209,0.6731,-3.029,-0.483,2.692,0.85045673003,0.15825900390,0.0000,2.360
15400,4162574.0340719465,664320.2721171479,4770629.3105003228,-1.0603,-0.1692,0.9423,-3.029,-0.483,2.692,-0.000,0.000,-0.000,0.85045674925,0.15825900390,0.0000000047,0.0000000000,0.0000000000,0.0000000000,0.000000,-0.000000,0.000000,0.0000,-0.0000,0.0000,4162574.0341,664320.2721,4770629.3105,-1.0603,-0.1692,0.9423,-3.029,-0.483,2.692,0.85045674925,0.15825900390,0.0000,2.360
15500,4162573.9128981694,664320.2527785858,4770629.4181966363,-1.3632,-0.2176,1.2116,-3.029,-0.483,2.692,-0.000,-0.000,0.000,0.85045677487,0.15825900390,0.0000000037,-0.0000000000,0.0000000000,0.0000000000,-0.000000,-0.000000,0.000000,0.0000,-0.0000,0.0000,4162573.9129,664320.2528,4770629.4182,-1.3632,-0.2176,1.2116,-3.029,-0.483,2.692,0.85045677487,0.15825900390,0.0000,2.360
15600,4162573.7614309443,664320.2286053825,4770629.5528170234,-1.6661,-0.2659,1.4808,-3.029,-0.483,2.692,-0.000,0.000,-0.000,0.85045680690,0.15825900390,0.0000000028,0.0000000000,0.0000000000,0.0000000000,0.000000,-0.000000,0.000000,0.0000,-0.0000,0.0000,4162573.7614,664320.2286,4770629.5528,-1.6661,-0.2659,1.4808,-3.029,-0.483,2.692,0.85045680690,0.15825900390,0.0000,2.360
15700,4162573.5796702686,664320.1995975376,4770629.7143614823,-1.9691,-0.3143,1.7501,-3.029,-0.483,2.692,-0.000,-0.000,-0.000,0.85045684534,0.15825900390,0.0000000056,0.0000000000,0.0000000000,0.0000000000,0.000000,-0.000000,0.000000,-0.0000,-0.0000,0.0000,4162573.5797,664320.1996,4770629.7144,-1.9691,-0.3143,1.7501,-3.029,-0.483,2.692,0.85045684534,0.15825900390,0.0000,2.360
15800,4162573.3676161389,664320.1657550508,4770629.9028300084,-2.2720,-0.3626,2.0193,-3.029,-0.483,2.692,-0.000,-0.000,-0.000,0.85045689018,0.15825900390,0.0000000037,0.0000000000,0.0000000000,0.0000000000,0.000000,-0.000000,0.000000,0.0000,-0.0000,0.0000,4162573.3676,664320.1658,4770629.9028,-2.2720,-0.3626,2.0193,-3.029,-0.483,2.692,0.85045689018,0.15825900390,0.0000,2.360
15900,4162573.1252685520,664320.1270779214,4770630.1182225980,-2.5749,-0.4109,2.2885,-3.029,-0.483,2.692,-0.000,-0.000,-0.000,0.85045694143,0.15825900390,0.0000000047,0.0000000000,0.0000000000,0.0000000000,0.000000,-0.000001,0.000000,0.0000,-0.0000,-0.0000,4162573.1253,664320.1271,4770630.1182,-2.5749,-0.4109,2.2885,-3.029,-0.483,2.692,0.85045694143,0.15825900390,0.0000,2.360
16000,4162572.8526275037,664320.0835661486,4770630.3605392464,-2.8779,-0.4593,2.5578,-3.029,-0.483,2.692,-0.000,-0.000,-0.000,0.85045699908,0.15825900390,0.0000000056,-0.0000000000,0.0000000000,0.0000000000,-0.000000,-0.000001,0.000000,-0.0000,-0.0000,-0.0000,4162572.8526,664320.0836,4770630.3605,-2.8779,-0.4593,2.5578,-3.029,-0.483,2.692,0.85045699908,0.15825900390,0.0000,2.360
16100,4162572.5496929898,664320.0352197320,4770630.6297799479,-3.1808,-0.5076,2.8270,-3.029,-0.483,2.692,-0.000,-0.000,-0.000,0.85045706314,0.15825900390,0.0000000047,-0.0000000000,0.0000000000,0.0000000000,-0.000000,-0.000001,0.000000,0.0000,-0.0000,0.0000,4162572.5497,664320.0352,4770630.6298,-3.1808,-0.5076,2.8270,-3.029,-0.483,2.692,0.85045706314,0.15825900390,0.0000,2.360
16200,4162572.2164650047,664319.9820386705,4770630.9259446971,-3.4837,-0.5560,3.0963,-3.029,-0.483,2.692,-0.000,-0.000,-0.000,0.85045713361,0.15825900390,0.0000000056,0.0000000000,0.0000000000,0.0000000000,0.000000,-0.000001,0.000000,-0.0000,-0.0000,0.0000,4162572.2165,664319.9820,4770630.9259,-3.4837,-0.5560,3.0963,-3.029,-0.483,2.692,0.85045713361,0.15825900390,0.0000,2.360
16300,4162571.8529435429,664319.9240229633,4770631.2490334865,-3.7867,-0.6043,3.3655,-3.029,-0.483,2.692,-0.000,-0.000,-0.000,0.85045721048,0.15825900390,0.0000000047,0.0000000000,0.0000000000,0.0000000000,0.000000,-0.000001,0.000000,0.0000,-0.0000,0.0000,4162571.8529,664319.9240,4770631.2490,-3.7867,-0.6043,3.3655,-3.029,-0.483,2.692,0.85045721048,0.15825900390,0.0000,2.360
16400,4162571.4591285982,664319.8611726094,4770631.5990463104,-4.0896,-0.6527,3.6347,-3.029,-0.483,2.692,-0.000,-0.000,-0.000,0.85045729376,0.15825900390,0.0000000047,0.0000000000,0.0000000000,0.0000000000,0.000000,-0.000001,0.000000,-0.0000,-0.0000,0.0000,4162571.4591,664319.8612,4770631.5990,-4.0896,-0.6527,3.6347,-3.029,-0.483,2.692,0.85045729376,0.15825900390,0.0000,2.360
16500,4162571.0350201642,664319.7934876077,4770631.9759831605,-4.3926,-0.7010,3.9040,-3.029,-0.483,2.692,-0.000,-0.000,-0.000,0.85045738345,0.15825900390,0.0000000047,0.0000000000,0.0000000000,0.0000000000,0.000000,-0.000001,0.000000,-0.0000,-0.0000,0.0000,4162571.0350,664319.7935,4770631.9760,-4.3926,-0.7010,3.9040,-3.029,-0.483,2.692,0.85045738345,0.15825900390,0.0000,2.360
16600,4162570.5806182334,664319.7209679572,4770632.3798440285,-4.6955,-0.7494,4.1732,-3.029,-0.483,2.692,-0.000,-0.000,-0.000,0.85045747954,0.15825900390,0.0000000056,0.0000000000,0.0000000000,0.0000000000,0.000000,-0.000001,0.000000,0.0000,-0.0000,0.0000,4162570.5806,664319.7210,4770632.3798,-4.6955,-0.7494,4.1732,-3.029,-0.483,2.692,0.85045747954,0.15825900390,0.0000,2.360
16700,4162570.0959227984,664319.6436136565,4770632.8106289059,-4.9984,-0.7977,4.4425,-3.029,-0.483,2.692,-0.000,-0.000,-0.000,0.85045758203,0.15825900390,0.0000000065,0.0000000000,0.0000000000,0.0000000000,0.000000,-0.000001,0.000000,-0.0000,-0.0000,0.0000,4162570.0959,664319.6436,4770632.8106,-4.9984,-0.7977,4.4425,-3.029,-0.483,2.692,0.85045758203,0.15825900390,0.0000,2.360
16800,4162569.5809338507,664319.5614247044,4770633.2683377825,-5.3014,-0.8461,4.7117,-3.029,-0.483,2.692,-0.000,-0.000,-0.000,0.85045769094,0.15825900390,0.0000000056,0.0000000000,0.0000000000,0.0000000000,0.000000,-0.000001,0.000000,0.0000,-0.0000,-0.0000,4162569.5809,664319.5614,4770633.2683,-5.3014,-0.8461,4.7117,-3.029,-0.483,2.692,0.85045769094,0.15825900390,0.0000,2.360
16900,4162569.0356513821,664319.4744010995,4770633.7529706489,-5.6043,-0.8944,4.9809,-3.029,-0.483,2.692,-0.000,-0.000,-0.000,0.85045780624,0.15825900390,0.0000000056,-0.0000000000,0.0000000000,0.0000000000,-0.000000,-0.000001,0.000000,-0.0000,-0.0000,0.0000,4162569.0357,664319.4744,4770633.7530,-5.6043,-0.8944,4.9809,-3.029,-0.483,2.692,0.85045780624,0.15825900390,0.0000,2.360
17000,4162568.4600753831,664319.3825428403,4770634.2645274941,-5.9072,-0.9428,5.2502,-3.029,-0.483,2.692,-0.000,-0.000,-0.000,0.85045792796,0.15825900390,0.0000000047,0.0000000000,0.0000000000,0.0000000000,0.000000,-0.000001,0.000000,-0.0000,-0.0000,0.0000,4162568.4601,664319.3825,4770634.2645,-5.9072,-0.9428,5.2502,-3.029,-0.483,2.692,0.85045792796,0.15825900390,0.0000,2.360
17100,4162567.8542058440,664319.2858499254,4770634.8030083077,-6.2102,-0.9911,5.5194,-3.029,-0.483,2.692,-0.000,-0.000,-0.000,0.85045805608,0.15825900390,0.0000000056,-0.0000000000,0.0000000000,0.0000000000,-0.000000,-0.000001,0.000000,0.0000,-0.0000,0.0000,4162567.8542,664319.2858,4770634.8030,-6.2102,-0.9911,5.5194,-3.029,-0.483,2.692,0.85045805608,0.15825900390,0.0000,2.360
17200,4162567.2180427546,664319.1843223530,4770635.3684130767,-6.5131,-1.0394,5.7887,-3.029,-0.483,2.692,-0.000,-0.000,-0.000,0.85045819061,0.15825900390,0.0000000056,0.0000000000,0.0000000000,0.0000000000,0.000000,-0.000001,0.000000,-0.0000,-0.0000,0.0000,4162567.2180,664319.1843,4770635.3684,-6.5131,-1.0394,5.7887,-3.029,-0.483,2.692,0.85045819061,0.15825900390,0.0000,2.360
17300,4162566.5515861041,664319.0779601214,4770635.9607417900,-6.8160,-1.0878,6.0579,-3.029,-0.483,2.692,-0.000,-0.000,-0.000,0.85045833154,0.15825900390,0.0000000056,0.0000000000,0.0000000000,0.0000000000,0.000000,-0.000001,0.000000,-0.0000,-0.0000,0.0000,4162566.5516,664319.0780,4770635.9607,-6.8160,-1.0878,6.0579,-3.029,-0.483,2.692,0.85045833154,0.15825900390,0.0000,2.360
17400,4162565.8548358814,664318.9667632289,4770636.5799944336,-7.1190,-1.1361,6.3271,-3.029,-0.483,2.692,-0.000,-0.000,-0.000,0.85045847888,0.15825900390,0.0000000056,0.0000000000,0.0000000000,0.0000000000,0.000000,-0.000002,0.000000,0.0000,-0.0000,-0.0000,4162565.8548,664318.9668,4770636.5800,-7.1190,-1.1361,6.3271,-3.029,-0.483,2.692,0.85045847888,0.15825900390,0.0000,2.360
17500,4162565.1277920748,664318.8507316735,4770637.2261709943,-7.4219,-1.1845,6.5964,-3.029,-0.483,2.692,-0.000,-0.000,-0.000,0.85045863262,0.15825900390,0.0000000056,-0.0000000000,0.0000000000,0.0000000000,-0.000000,-0.000002,0.000000,0.0000,-0.0000,0.0000,4162565.1278,664318.8507,4770637.2262,-7.4219,-1.1845,6.5964,-3.029,-0.483,2.692,0.85045863262,0.15825900390,0.0000,2.360
17600,4162564.3704546718,664318.7298654533,4770637.8992714584,-7.7248,-1.2328,6.8656,-3.029,-0.483,2.692,-0.000,-0.000,-0.000,0.85045879277,0.15825900390,0.0000000065,0.0000000000,0.0000000000,0.0000000000,0.000000,-0.000002,0.000000,0.0000,-0.0000,0.0000,4162564.3705,664318.7299,4770637.8993,-7.7248,-1.2328,6.8656,-3.029,-0.483,2.692,0.85045879277,0.15825900390,0.0000,2.360
17700,4162563.5828236598,664318.6041645664,4770638.5992958108,-8.0278,-1.2812,7.1349,-3.029,-0.483,2.692,-0.000,-0.000,-0.000,0.85045895933,0.15825900390,0.0000000056,0.0000000000,0.0000000000,0.0000000000,0.000000,-0.000002,0.000000,0.0000,-0.0000,0.0000,4162563.5828,664318.6042,4770638.5993,-8.0278,-1.2812,7.1349,-3.029,-0.483,2.692,0.85045895933,0.15825900390,0.0000,2.360
17800,4162562.7648990252,664318.4736290105,4770639.3262440357,-8.3307,-1.3295,7.4041,-3.029,-0.483,2.692,-0.000,-0.000,-0.000,0.85045913229,0.15825900390,0.0000000065,-0.0000000000,0.0000000000,0.0000000000,-0.000000,-0.000002,0.000000,0.0000,-0.0000,0.0000,4162562.7649,664318.4736,4770639.3262,-8.3307,-1.3295,7.4041,-3.029,-0.483,2.692,0.85045913229,0.15825900390,0.0000,2.360
17900,4162561.9166807546,664318.3382587834,4770640.0801161174,-8.6337,-1.3779,7.6733,-3.029,-0.483,2.692,-0.000,-0.000,-0.000,0.85045931166,0.15825900390,0.0000000065,-0.0000000000,0.0000000000,0.0000000000,-0.000000,-0.000002,0.000000,0.0000,-0.0000,0.0000,4162561.9167,664318.3383,4770640.0801,-8.6337,-1.3779,7.6733,-3.029,-0.483,2.692,0.85045931166,0.15825900390,0.0000,2.360
18000,4162561.0381688336,664318.1980538829,4770640.8609120399,-8.9366,-1.4262,7.9426,-3.029,-0.483,2.692,-0.000,-0.000,-0.000,0.85045949744,0.15825900390,0.0000000056,-0.0000000000,0.0000000000,0.0000000000,-0.000000,-0.000002,0.000000,0.0000,-0.0000,-0.0000,4162561.0382,664318.1981,4770640.8609,-8.9366,-1.4262,7.9426,-3.029,-0.483,2.692,0.85045949744,0.15825900390,0.0000,2.361
18100,4162560.1293632472,664318.0530143066,4770641.6686317855,-9.2395,-1.4746,8.2118,-3.029,-0.483,2.692,-0.000,-0.000,-0.000,0.85045968962,0.15825900390,0.0000000056,0.0000000000,0.0000000000,0.0000000000,0.000000,-0.000002,0.000000,-0.0000,-0.0000,0.0000,4162560.1294,664318.0530,4770641.6686,-9.2395,-1.4746,8.2118,-3.029,-0.483,2.692,0.85045968962,0.15825900390,0.0000,2.361
18200,4162559.1902639805,664317.9031400520,4770642.5032753376,-9.5425,-1.5229,8.4811,-3.029,-0.483,2.692,-0.000,-0.000,-0.000,0.85045988820,0.15825900390,0.0000000056,0.0000000000,0.0000000000,0.0000000000,0.000000,-0.000002,0.000000,-0.0000,-0.0000,0.0000,4162559.1903,664317.9031,4770642.5033,-9.5425,-1.5229,8.4811,-3.029,-0.483,2.692,0.85045988820,0.15825900390,0.0000,2.361
18300,4162558.2208710173,664317.7484311167,4770643.3648426766,-9.8454,-1.5713,8.7503,-3.029,-0.483,2.692,-0.000,-0.000,-0.000,0.85046009320,0.15825900390,0.0000000056,0.0000000000,0.0000000000,0.0000000000,0.000000,-0.000002,0.000000,-0.0000,-0.0000,0.0000,4162558.2209,664317.7484,4770643.3648,-9.8454,-1.5713,8.7503,-3.029,-0.483,2.692,0.85046009320,0.15825900390,0.0000,2.361
18400,4162557.2211843412,664317.5888874980,4770644.2533337846,-10.1483,-1.6196,9.0195,-3.029,-0.483,2.692,-0.000,-0.000,-0.000,0.85046030460,0.15825900390,0.0000000056,0.0000000000,0.0000000000,0.0000000000,0.000000,-0.000002,0.000000,0.0000,-0.0000,0.0000,4162557.2212,664317.5889,4770644.2533,-10.1483,-1.6196,9.0195,-3.029,-0.483,2.692,0.85046030460,0.15825900390,0.0000,2.361
18500,4162556.1912039355,664317.4245091932,4770645.1687486414,-10.4513,-1.6680,9.2888,-3.029,-0.483,2.692,-0.000,-0.000,-0.000,0.85046052240,0.15825900390,0.0000000056,0.0000000000,0.0000000000,0.0000000000,0.000000,-0.000002,0.000000,-0.0000,-0.0000,-0.0000,4162556.1912,664317.4245,4770645.1687,-10.4513,-1.6680,9.2888,-3.029,-0.483,2.692,0.85046052240,0.15825900390,0.0000,2.361
18600,4162555.1309297830,664317.2552961995,4770646.1110872272,-10.7542,-1.7163,9.5580,-3.029,-0.483,2.692,-0.000,-0.000,-0.000,0.85046074661,0.15825900390,0.0000000047,-0.0000000000,0.0000000000,0.0000000000,-0.000000,-0.000002,0.000000,0.0000,-0.0000,0.0000,4162555.1309,664317.2553,4770646.1111,-10.7542,-1.7163,9.5580,-3.029,-0.483,2.692,0.85046074661,0.15825900390,0.0000,2.361
18700,4162554.0403618654,664317.0812485141,4770647.0803495217,-11.0571,-1.7647,9.8272,-3.029,-0.483,2.692,-0.000,-0.000,-0.000,0.85046097723,0.15825900390,0.0000000047,0.0000000000,0.0000000000,0.0000000000,0.000000,-0.000002,0.000000,-0.0000,-0.0000,0.0000,4162554.0404,664317.0812,4770647.0803,-11.0571,-1.7647,9.8272,-3.029,-0.483,2.692,0.85046097723,0.15825900390,0.0000,2.361
18800,4162552.9195001647,664316.9023661341,4770648.0765355034,-11.3601,-1.8130,10.0965,-3.029,-0.483,2.692,-0.000,-0.000,-0.000,0.85046121425,0.15825900390,0.0000000047,0.0000000000,0.0000000000,0.0000000000,0.000000,-0.000002,0.000000,-0.0000,-0.0000,0.0000,4162552.9195,664316.9024,4770648.0765,-11.3601,-1.8130,10.0965,-3.029,-0.483,2.692,0.85046121425,0.15825900390,0.0000,2.361
18900,4162551.7683446617,664316.7186490565,4770649.0996451508,-11.6630,-1.8613,10.3657,-3.029,-0.483,2.692,-0.000,-0.000,-0.000,0.85046145768,0.15825900390,0.0000000056,0.0000000000,0.0000000000,0.0000000000,0.000000,-0.000002,0.000000,0.0000,-0.0000,0.0000,4162551.7683,664316.7186,4770649.0996,-11.6630,-1.8613,10.3657,-3.029,-0.483,2.692,0.85046145768,0.15825900390,0.0000,2.361
19000,4162550.5868953373,664316.5300972781,4770650.1496784408,-11.9660,-1.9097,10.6350,-3.029,-0.483,2.692,-0.000,-0.000,-0.000,0.85046170752,0.15825900390,0.0000000047,0.0000000000,0.0000000000,0.0000000000,0.000000,-0.000003,0.000000,0.0000,-0.0000,0.0000,4162550.5869,664316.5301,4770650.1497,-11.9660,-1.9097,10.6350,-3.029,-0.483,2.692,0.85046170752,0.15825900390,0.0000,2.361
19100,4162549.3751521711,664316.3367107958,4770651.2266353508,-12.2689,-1.9580,10.9042,-3.029,-0.483,2.692,-0.000,-0.000,-0.000,0.85046196376,0.15825900390,0.0000000047,0.0000000000,0.0000000000,0.0000000000,0.000000,-0.000003,0.000000,0.0000,-0.0000,0.0000,4162549.3752,664316.3367,4770651.2266,-12.2689,-1.9580,10.9042,-3.029,-0.483,2.692,0.85046196376,0.15825900390,0.0000,2.361
19200,4162548.1331151430,664316.1384896062,4770652.3305158578,-12.5718,-2.0064,11.1734,-3.029,-0.483,2.692,-0.000,-0.000,-0.000,0.85046222641,0.15825900390,0.0000000065,-0.0000000000,0.0000000000,0.0000000000,-0.000000,-0.000003,0.000000,-0.0000,-0.0000,0.0000,4162548.1331,664316.1385,4770652.3305,-12.5718,-2.0064,11.1734,-3.029,-0.483,2.692,0.85046222641,0.15825900390,0.0000,2.361
19300,4162546.8607842322,664315.9354337062,4770653.4613199364,-12.8748,-2.0547,11.4427,-3.029,-0.483,2.692,-0.000,-0.000,-0.000,0.85046249546,0.15825900390,0.0000000056,0.0000000000,0.0000000000,0.0000000000,0.000000,-0.000003,0.000000,0.0000,-0.0000,0.0000,4162546.8608,664315.9354,4770653.4613,-12.8748,-2.0547,11.4427,-3.029,-0.483,2.692,0.85046249546,0.15825900390,0.0000,2.361
19400,4162545.5581594170,664315.7275430921,4770654.6190475626,-13.1777,-2.1031,11.7119,-3.029,-0.483,2.692,-0.000,-0.000,-0.000,0.85046277092,0.15825900390,0.0000000047,0.0000000000,0.0000000000,0.0000000000,0.000000,-0.000003,0.000000,-0.0000,-0.0000,0.0000,4162545.5582,664315.7275,4770654.6190,-13.1777,-2.1031,11.7119,-3.029,-0.483,2.692,0.85046277092,0.15825900390,0.0000,2.361
19500,4162544.2252406753,664315.5148177607,4770655.8036987111,-13.4807,-2.1514,11.9811,-3.029,-0.483,2.692,-0.000,-0.000,-0.000,0.85046305278,0.15825900390,0.0000000056,0.0000000000,0.0000000000,0.0000000000,0.000000,-0.000003,0.000000,0.0000,-0.0000,0.0000,4162544.2252,664315.5148,4770655.8037,-13.4807,-2.1514,11.9811,-3.029,-0.483,2.692,0.85046305278,0.15825900390,0.0000,2.361
19600,4162542.8620279846,664315.2972577082,4770657.0152733559,-13.7836,-2.1998,12.2504,-3.029,-0.483,2.692,-0.000,-0.000,-0.000,0.85046334106,0.15825900390,0.0000000047,0.0000000000,0.0000000000,0.0000000000,0.000000,-0.000003,0.000000,0.0000,-0.0000,0.0000,4162542.8620,664315.2973,4770657.0153,-13.7836,-2.1998,12.2504,-3.029,-0.483,2.692,0.85046334106,0.15825900390,0.0000,2.361
19700,4162541.4685213221,664315.0748629309,4770658.2537714699,-14.0865,-2.2481,12.5196,-3.029,-0.483,2.692,-0.000,-0.000,-0.000,0.85046363573,0.15825900390,0.0000000047,0.0000000000,0.0000000000,0.0000000000,0.000000,-0.000003,0.000000,0.0000,-0.0000,-0.0000,4162541.4685,664315.0749,4770658.2538,-14.0865,-2.2481,12.5196,-3.029,-0.483,2.692,0.85046363573,0.15825900390,0.0000,2.361
19800,4162540.0447206646,664314.8476334251,4770659.5191930272,-14.3895,-2.2965,12.7888,-3.029,-0.483,2.692,-0.000,-0.000,-0.000,0.85046393682,0.15825900390,0.0000000056,-0.0000000000,0.0000000000,0.0000000000,-0.000000,-0.000003,0.000000,-0.0000,-0.0000,0.0000,4162540.0447,664314.8476,4770659.5192,-14.3895,-2.2965,12.7888,-3.029,-0.483,2.692,0.85046393682,0.15825900390,0.0000,2.361
19900,4162538.5906259874,664314.6155691871,4770660.8115379987,-14.6924,-2.3448,13.0581,-3.029,-0.483,2.692,30.294,4.835,-26.924,0.85046424431,0.15825900390,0.0000000047,0.0000000000,0.0000000000,0.0000000000,0.000000,-0.000003,0.000000,0.0000,-0.0000,-0.0000,4162538.5906,664314.6156,4770660.8115,-14.6924,-2.3448,13.0581,-3.029,-0.483,2.692,0.85046424431,0.15825900390,0.0000,2.361
20000,4162537.1112862085,664314.3794759917,4770662.1263190508,-14.8439,-2.3690,13.1927,-0.000,-0.000,-0.000,14.994,2.393,-13.326,0.85046455713,0.15825900390,0.0000000065,0.0000000000,0.0000000000,0.0000000000,0.000000,-0.000003,0.000000,-0.0000,-0.0000,0.0000,4162537.1113,664314.3795,4770662.1263,-14.8439,-2.3690,13.1927,-0.000,-0.000,-0.000,0.85046455713,0.15825900390,0.0000,2.361
20100,4162535.6293960521,664314.1429757724,4770663.4433659492,-14.7689,-2.3570,13.1260,1.499,0.239,-1.333,0.000,0.000,0.000,0.85046487050,0.15825900390,0.0000000056,0.0000000000,0.0000000000,0.0000000000,0.000000,-0.000003,0.000000,-0.0000,0.0000,0.0000,4162535.6294,664314.1430,4770663.4434,-14.7689,-2.3570,13.1260,1.499,0.239,-1.333,0.85046487050,0.15825900390,0.0000,2.361
20200,4162534.1600003513,664313.9084695885,4770664.7493074350,-14.6190,-2.3331,12.9928,1.499,0.239,-1.333,0.000,0.000,0.000,0.85046518123,0.15825900390,0.0000000065,-0.0000000000,0.0000000000,0.0000000000,-0.000000,-0.000003,0.000000,0.0000,0.0000,0.0000,4162534.1600,664313.9085,4770664.7493,-14.6190,-2.3331,12.9928,1.499,0.239,-1.333,0.85046518123,0.15825900390,0.0000,2.361
20300,4162532.7055980894,664313.6763562618,4770666.0419225320,-14.4691,-2.3092,12.8595,1.499,0.239,-1.333,0.000,0.000,0.000,0.85046548878,0.15825900390,0.0000000037,0.0000000000,0.0000000000,0.0000000000,0.000000,-0.000003,0.000000,0.0000,0.0000,0.0000,4162532.7056,664313.6764,4770666.0419,-14.4691,-2.3092,12.8595,1.499,0.239,-1.333,0.85046548878,0.15825900390,0.0000,2.361
20400,4162531.2661892786,664313.4466357944,4770667.3212112542,-14.3191,-2.2852,12.7263,1.499,0.239,-1.333,0.000,0.000,0.000,0.85046579316,0.15825900390,0.0000000047,0.0000000000,0.0000000000,0.0000000000,0.000000,-0.000003,0.000000,-0.0000,0.0000,-0.0000,4162531.2662,664313.4466,4770667.3212,-14.3191,-2.2852,12.7263,1.499,0.239,-1.333,0.85046579316,0.15825900390,0.0000,2.361
20500,4162529.8417739314,664313.2193081881,4770668.5871736156,-14.1692,-2.2613,12.5930,1.499,0.239,-1.333,0.000,0.000,0.000,0.85046609438,0.15825900390,0.0000000056,-0.0000000000,0.0000000000,0.0000000000,-0.000000,-0.000003,0.000000,-0.0000,0.0000,0.0000,4162529.8418,664313.2193,4770668.5872,-14.1692,-2.2613,12.5930,1.499,0.239,-1.333,0.85046609438,0.15825900390,0.0000,2.361
20600,4162528.4323520591,664312.9943734448,4770669.8398096301,-14.0193,-2.2374,12.4597,1.499,0.239,-1.333,0.000,0.000,0.000,0.85046639242,0.15825900390,0.0000000047,0.0000000000,0.0000000000,0.0000000000,0.000000,-0.000003,0.000000,-0.0000,0.0000,0.0000,4162528.4324,664312.9944,4770669.8398,-14.0193,-2.2374,12.4597,1.499,0.239,-1.333,0.85046639242,0.15825900390,0.0000,2.361
20700,4162527.0379236736,664312.7718315665,4770671.0791193107,-13.8693,-2.2135,12.3265,1.499,0.239,-1.333,0.000,0.000,0.000,0.85046668729,0.15825900390,0.0000000065,0.0000000000,0.0000000000,0.0000000000,0.000000,-0.000003,0.000000,0.0000,0.0000,0.0000,4162527.0379,664312.7718,4770671.0791,-13.8693,-2.2135,12.3265,1.499,0.239,-1.333,0.85046668729,0.15825900390,0.0000,2.361
20800,4162525.6584887868,664312.5516825549,4770672.3051026706,-13.7194,-2.1895,12.1932,1.499,0.239,-1.333,0.000,0.000,0.000,0.85046697899,0.15825900390,0.0000000047,0.0000000000,0.0000000000,0.0000000000,0.000000,-0.000003,0.000000,0.0000,0.0000,-0.0000,4162525.6585,664312.5517,4770672.3051,-13.7194,-2.1895,12.1932,1.499,0.239,-1.333,0.85046697899,0.15825900390,0.0000,2.361
20900,4162524.2940474101,664312.3339264118,4770673.5177597236,-13.5694,-2.1656,12.0599,1.499,0.239,-1.333,0.000,0.000,0.000,0.85046726752,0.15825900390,0.0000000056,-0.0000000000,0.0000000000,0.0000000000,-0.000000,-0.000003,0.000000,0.0000,0.0000,0.0000,4162524.2940,664312.3339,4770673.5178,-13.5694,-2.1656,12.0599,1.499,0.239,-1.333,0.85046726752,0.15825900390,0.0000,2.361
21000,4162522.9445995549,664312.1185631392,4770674.7170904828,-13.4195,-2.1417,11.9267,1.499,0.239,-1.333,0.000,0.000,0.000,0.85046755288,0.15825900390,0.0000000047,0.0000000000,0.0000000000,0.0000000000,0.000000,-0.000003,0.000000,0.0000,0.0000,0.0000,4162522.9446,664312.1186,4770674.7171,-13.4195,-2.1417,11.9267,1.499,0.239,-1.333,0.85046755288,0.15825900390,0.0000,2.361
21100,4162521.6101452322,664311.9055927389,4770675.9030949613,-13.2696,-2.1177,11.7934,1.499,0.239,-1.333,0.000,0.000,0.000,0.85046783507,0.15825900390,0.0000000047,0.0000000000,0.0000000000,0.0000000000,0.000000,-0.000003,0.000000,0.0000,0.0000,0.0000,4162521.6101,664311.9056,4770675.9031,-13.2696,-2.1177,11.7934,1.499,0.239,-1.333,0.85046783507,0.15825900390,0.0000,2.361
21200,4162520.2906844532,664311.6950152125,4770677.0757731721,-13.1196,-2.0938,11.6602,1.499,0.239,-1.333,0.000,0.000,0.000,0.85046811409,0.15825900390,0.0000000056,0.0000000000,0.0000000000,0.0000000000,0.000000,-0.000003,0.000000,-0.0000,0.0000,0.0000,4162520.2907,664311.6950,4770677.0758,-13.1196,-2.0938,11.6602,1.499,0.239,-1.333,0.85046811409,0.15825900390,0.0000,2.361
21300,4162518.9862172292,664311.4868305619,4770678.2351251272,-12.9697,-2.0699,11.5269,1.499,0.239,-1.333,0.000,0.000,0.000,0.85046838994,0.15825900390,0.0000000037,0.0000000000,0.0000000000,0.0000000000,0.000000,-0.000003,0.000000,-0.0000,0.0000,0.0000,4162518.9862,664311.4868,4770678.2351,-12.9697,-2.0699,11.5269,1.499,0.239,-1.333,0.85046838994,0.15825900390,0.0000,2.361
21400,4162517.6967435712,664311.2810387887,4770679.3811508399,-12.8198,-2.0460,11.3936,1.499,0.239,-1.333,0.000,0.000,0.000,0.85046866261,0.15825900390,0.0000000056,0.0000000000,0.0000000000,0.0000000000,0.000000,-0.000003,0.000000,0.0000,0.0000,0.0000,4162517.6967,664311.2810,4770679.3812,-12.8198,-2.0460,11.3936,1.499,0.239,-1.333,0.85046866261,0.15825900390,0.0000,2.361
21500,4162516.4222634896,664311.0776398948,4770680.5138503220,-12.6698,-2.0220,11.2604,1.499,0.239,-1.333,0.000,0.000,0.000,0.85046893212,0.15825900390,0.0000000037,0.0000000000,0.0000000000,0.0000000000,0.000000,-0.000003,0.000000,0.0000,0.0000,0.0000,4162516.4223,664311.0776,4770680.5139,-12.6698,-2.0220,11.2604,1.499,0.239,-1.333,0.85046893212,0.15825900390,0.0000,2.361
21600,4162515.1627769950,664310.8766338817,4770681.6332235867,-12.5199,-1.9981,11.1271,1.499,0.239,-1.333,0.000,0.000,0.000,0.85046919845,0.15825900390,0.0000000047,0.0000000000,0.0000000000,0.0000000000,0.000000,-0.000003,0.000000,0.0000,0.0000,0.0000,4162515.1628,664310.8766,4770681.6332,-12.5199,-1.9981,11.1271,1.499,0.239,-1.333,0.85046919845,0.15825900390,0.0000,2.361
21700,4162513.9182840982,664310.6780207512,4770682.7392706452,-12.3700,-1.9742,10.9938,1.499,0.239,-1.333,0.000,0.000,0.000,0.85046946162,0.15825900390,0.0000000037,0.0000000000,0.0000000000,0.0000000000,0.000000,-0.000003,0.000000,-0.0000,0.0000,0.0000,4162513.9183,664310.6780,4770682.7393,-12.3700,-1.9742,10.9938,1.499,0.239,-1.333,0.85046946162,0.15825900390,0.0000,2.361
21800,4162512.6887848093,664310.4818005050,4770683.8319915105,-12.2200,-1.9502,10.8606,1.499,0.239,-1.333,0.000,0.000,0.000,0.85046972161,0.15825900390,0.0000000047,0.0000000000,0.0000000000,0.0000000000,0.000000,-0.000003,0.000000,-0.0000,0.0000,0.0000,4162512.6888,664310.4818,4770683.8320,-12.2200,-1.9502,10.8606,1.499,0.239,-1.333,0.85046972161,0.15825900390,0.0000,2.361
21900,4162511.4742791387,664310.2879731446,4770684.9113861937,-12.0701,-1.9263,10.7273,1.499,0.239,-1.333,0.000,0.000,0.000,0.85046997844,0.15825900390,0.0000000047,0.0000000000,0.0000000000,0.0000000000,0.000000,-0.000003,0.000000,-0.0000,0.0000,0.0000,4162511.4743,664310.2880,4770684.9114,-12.0701,-1.9263,10.7273,1.499,0.239,-1.333,0.85046997844,0.15825900390,0.0000,2.361
22000,4162510.2747670966,664310.0965386716,4770685.9774547061,-11.9202,-1.9024,10.5941,1.499,0.239,-1.333,0.000,0.000,0.000,0.85047023209,0.15825900390,0.0000000056,0.0000000000,0.0000000000,0.0000000000,0.000000,-0.000003,0.000000,0.0000,0.0000,0.0000,4162510.2748,664310.0965,4770685.9775,-11.9202,-1.9024,10.5941,1.499,0.239,-1.333,0.85047023209,0.15825900390,0.0000,2.361
22100,4162509.0902486932,664309.9074970878,4770687.0301970597,-11.7702,-1.8785,10.4608,1.499,0.239,-1.333,0.000,0.000,0.000,0.85047048257,0.15825900390,0.0000000047,0.0000000000,0.0000000000,0.0000000000,0.000000,-0.000002,0.000000,0.0000,0.0000,0.0000,4162509.0902,664309.9075,4770687.0302,-11.7702,-1.8785,10.4608,1.499,0.239,-1.333,0.85047048257,0.15825900390,0.0000,2.361
22200,4162507.9207239379,664309.7208483947,4770688.0696132658,-11.6203,-1.8545,10.3275,1.499,0.239,-1.333,0.000,0.000,0.000,0.85047072988,0.15825900390,0.0000000037,-0.0000000000,0.0000000000,0.0000000000,-0.000000,-0.000002,0.000000,0.0000,0.0000,0.0000,4162507.9207,664309.7208,4770688.0696,-11.6203,-1.8545,10.3275,1.499,0.239,-1.333,0.85047072988,0.15825900390,0.0000,2.361
22300,4162506.7661928409,664309.5365925938,4770689.0957033364,-11.4703,-1.8306,10.1943,1.499,0.239,-1.333,0.000,0.000,0.000,0.85047097402,0.15825900390,0.0000000047,0.0000000000,0.0000000000,0.0000000000,0.000000,-0.000002,0.000000,0.0000,0.0000,0.0000,4162506.7662,664309.5366,4770689.0957,-11.4703,-1.8306,10.1943,1.499,0.239,-1.333,0.85047097402,0.15825900390,0.0000,2.361
22400,4162505.6266554114,664309.3547296866,4770690.1084672818,-11.3204,-1.8067,10.0610,1.499,0.239,-1.333,0.000,0.000,0.000,0.85047121499,0.15825900390,0.0000000047,0.0000000000,0.0000000000,0.0000000000,0.000000,-0.000002,0.000000,-0.0000,0.0000,-0.0000,4162505.6267,664309.3547,4770690.1085,-11.3204,-1.8067,10.0610,1.499,0.239,-1.333,0.85047121499,0.15825900390,0.0000,2.361
22500,4162504.5021116594,664309.1752596748,4770691.1079051131,-11.1705,-1.7827,9.9277,1.499,0.239,-1.333,0.000,0.000,0.000,0.85047145279,0.15825900390,0.0000000056,-0.0000000000,0.0000000000,0.0000000000,-0.000000,-0.000002,0.000000,0.0000,0.0000,0.0000,4162504.5021,664309.1753,4770691.1079,-11.1705,-1.7827,9.9277,1.499,0.239,-1.333,0.85047145279,0.15825900390,0.0000,2.361
22600,4162503.3925615940,664308.9981825597,4770692.0940168416,-11.0205,-1.7588,9.7945,1.499,0.239,-1.333,0.000,0.000,0.000,0.85047168742,0.15825900390,0.0000000056,0.0000000000,0.0000000000,0.0000000000,0.000000,-0.000002,0.000000,-0.0000,0.0000,-0.0000,4162503.3926,664308.9982,4770692.0940,-11.0205,-1.7588,9.7945,1.499,0.239,-1.333,0.85047168742,0.15825900390,0.0000,2.361
22700,4162502.2980052247,664308.8234983429,4770693.0668024775,-10.8706,-1.7349,9.6612,1.499,0.239,-1.333,0.000,0.000,0.000,0.85047191888,0.15825900390,0.0000000037,0.0000000000,0.0000000000,0.0000000000,0.000000,-0.000002,0.000000,-0.0000,0.0000,0.0000,4162502.2980,664308.8235,4770693.0668,-10.8706,-1.7349,9.6612,1.499,0.239,-1.333,0.85047191888,0.15825900390,0.0000,2.361
22800,4162501.2184425602,664308.6512070257,4770694.0262620309,-10.7207,-1.7109,9.5280,1.499,0.239,-1.333,0.000,0.000,0.000,0.85047214717,0.15825900390,0.0000000056,-0.0000000000,0.0000000000,0.0000000000,-0.000000,-0.000002,0.000000,0.0000,0.0000,0.0000,4162501.2184,664308.6512,4770694.0263,-10.7207,-1.7109,9.5280,1.499,0.239,-1.333,0.85047214717,0.15825900390,0.0000,2.361
22900,4162500.1538736098,664308.4813086098,4770694.9723955132,-10.5707,-1.6870,9.3947,1.499,0.239,-1.333,0.000,0.000,0.000,0.85047237229,0.15825900390,0.0000000047,0.0000000000,0.0000000000,0.0000000000,0.000000,-0.000002,0.000000,-0.0000,0.0000,0.0000,4162500.1539,664308.4813,4770694.9724,-10.5707,-1.6870,9.3947,1.499,0.239,-1.333,0.85047237229,0.15825900390,0.0000,2.361
23000,4162499.1042983825,664308.3138030964,4770695.9052029345,-10.4208,-1.6631,9.2614,1.499,0.239,-1.333,0.000,0.000,0.000,0.85047259423,0.15825900390,0.0000000047,0.0000000000,0.0000000000,0.0000000000,0.000000,-0.000002,0.000000,-0.0000,0.0000,0.0000,4162499.1043,664308.3138,4770695.9052,-10.4208,-1.6631,9.2614,1.499,0.239,-1.333,0.85047259423,0.15825900390,0.0000,2.361
23100,4162498.0697168871,664308.1486904870,4770696.8246843042,-10.2708,-1.6392,9.1282,1.499,0.239,-1.333,0.000,0.000,0.000,0.85047281301,0.15825900390,0.0000000056,0.0000000000,0.0000000000,0.0000000000,0.000000,-0.000002,0.000000,0.0000,0.0000,0.0000,4162498.0697,664308.1487,4770696.8247,-10.2708,-1.6392,9.1282,1.499,0.239,-1.333,0.85047281301,0.15825900390,0.0000,2.361
23200,4162497.0501291319,664307.9859707829,4770697.7308396325,-10.1209,-1.6152,8.9949,1.499,0.239,-1.333,0.000,0.000,0.000,0.85047302861,0.15825900390,0.0000000047,-0.0000000000,0.0000000000,0.0000000000,-0.000000,-0.000002,0.000000,0.0000,0.0000,0.0000,4162497.0501,664307.9860,4770697.7308,-10.1209,-1.6152,8.9949,1.499,0.239,-1.333,0.85047302861,0.15825900390,0.0000,2.361
23300,4162496.0455351258,664307.8256439855,4770698.6236689296,-9.9710,-1.5913,8.8617,1.499,0.239,-1.333,0.000,0.000,0.000,0.85047324105,0.15825900390,0.0000000047,0.0000000000,0.0000000000,0.0000000000,0.000000,-0.000002,0.000000,-0.0000,0.0000,-0.0000,4162496.0455,664307.8256,4770698.6237,-9.9710,-1.5913,8.8617,1.499,0.239,-1.333,0.85047324105,0.15825900390,0.0000,2.361
23400,4162495.0559348767,664307.6677100962,4770699.5031722048,-9.8210,-1.5674,8.7284,1.499,0.239,-1.333,0.000,0.000,0.000,0.85047345031,0.15825900390,0.0000000037,-0.0000000000,0.0000000000,0.0000000000,-0.000000,-0.000002,0.000000,0.0000,0.0000,0.0000,4162495.0559,664307.6677,4770699.5032,-9.8210,-1.5674,8.7284,1.499,0.239,-1.333,0.85047345031,0.15825900390,0.0000,2.361
23500,4162494.0813283934,664307.5121691163,4770700.3693494685,-9.6711,-1.5434,8.5951,1.499,0.239,-1.333,0.000,0.000,0.000,0.85047365640,0.15825900390,0.0000000037,0.0000000000,0.0000000000,0.0000000000,0.000000,-0.000002,0.000000,-0.0000,0.0000,-0.0000,4162494.0813,664307.5122,4770700.3693,-9.6711,-1.5434,8.5951,1.499,0.239,-1.333,0.85047365640,0.15825900390,0.0000,2.361
23600,4162493.1217156835,664307.3590210470,4770701.2222007290,-9.5212,-1.5195,8.4619,1.499,0.239,-1.333,0.000,0.000,0.000,0.85047385933,0.15825900390,0.0000000037,-0.0000000000,0.0000000000,0.0000000000,-0.000000,-0.000002,0.000000,-0.0000,0.0000,0.0000,4162493.1217,664307.3590,4770701.2222,-9.5212,-1.5195,8.4619,1.499,0.239,-1.333,0.85047385933,0.15825900390,0.0000,2.361
23700,4162492.1770967552,664307.2082658897,4770702.0617259955,-9.3712,-1.4956,8.3286,1.499,0.239,-1.333,0.000,0.000,0.000,0.85047405908,0.15825900390,0.0000000047,0.0000000000,0.0000000000,0.0000000000,0.000000,-0.000002,0.000000,-0.0000,0.0000,0.0000,4162492.1771,664307.2083,4770702.0617,-9.3712,-1.4956,8.3286,1.499,0.239,-1.333,0.85047405908,0.15825900390,0.0000,2.361
23800,4162491.2474716166,664307.0599036455,4770702.8879252784,-9.2213,-1.4717,8.1954,1.499,0.239,-1.333,0.000,0.000,0.000,0.85047425566,0.15825900390,0.0000000047,0.0000000000,0.0000000000,0.0000000000,0.000000,-0.000002,0.000000,0.0000,0.0000,0.0000,4162491.2475,664307.0599,4770702.8879,-9.2213,-1.4717,8.1954,1.499,0.239,-1.333,0.85047425566,0.15825900390,0.0000,2.361
23900,4162490.3328402755,664306.9139343159,4770703.7007985851,-9.0713,-1.4477,8.0621,1.499,0.239,-1.333,0.000,0.000,0.000,0.85047444907,0.15825900390,0.0000000037,0.0000000000,0.0000000000,0.0000000000,0.000000,-0.000002,0.000000,-0.0000,0.0000,0.0000,4162490.3328,664306.9139,4770703.7008,-9.0713,-1.4477,8.0621,1.499,0.239,-1.333,0.85047444907,0.15825900390,0.0000,2.361
24000,4162489.4332027393,664306.7703579019,4770704.5003459258,-8.9214,-1.4238,7.9288,1.499,0.239,-1.333,0.000,0.000,0.000,0.85047463931,0.15825900390,0.0000000056,0.0000000000,0.0000000000,0.0000000000,0.000000,-0.000002,0.000000,-0.0000,0.0000,0.0000,4162489.4332,664306.7704,4770704.5003,-8.9214,-1.4238,7.9288,1.499,0.239,-1.333,0.85047463931,0.15825900390,0.0000,2.362
24100,4162488.5485590156,664306.6291744048,4770705.2865673080,-8.7715,-1.3999,7.7956,1.499,0.239,-1.333,0.000,0.000,0.000,0.85047482638,0.15825900390,0.0000000047,0.0000000000,0.0000000000,0.0000000000,0.000000,-0.000002,0.000000,-0.0000,0.0000,0.0000,4162488.5486,664306.6292,4770705.2866,-8.7715,-1.3999,7.7956,1.499,0.239,-1.333,0.85047482638,0.15825900390,0.0000,2.362
24200,4162487.6789091118,664306.4903838256,4770706.0594627410,-8.6215,-1.3759,7.6623,1.499,0.239,-1.333,0.000,0.000,0.000,0.85047501028,0.15825900390,0.0000000047,-0.0000000000,0.0000000000,0.0000000000,-0.000000,-0.000002,0.000000,0.0000,0.0000,0.0000,4162487.6789,664306.4904,4770706.0595,-8.6215,-1.3759,7.6623,1.499,0.239,-1.333,0.85047501028,0.15825900390,0.0000,2.362
24300,4162486.8242530348,664306.3539861657,4770706.8190322332,-8.4716,-1.3520,7.5291,1.499,0.239,-1.333,0.000,0.000,0.000,0.85047519100,0.15825900390,0.0000000047,0.0000000000,0.0000000000,0.0000000000,0.000000,-0.000002,0.000000,-0.0000,0.0000,0.0000,4162486.8243,664306.3540,4770706.8190,-8.4716,-1.3520,7.5291,1.499,0.239,-1.333,0.85047519100,0.15825900390,0.0000,2.362
24400,4162485.9845907921,664306.2199814261,4770707.5652757920,-8.3217,-1.3281,7.3958,1.499,0.239,-1.333,0.000,0.000,0.000,0.85047536856,0.15825900390,0.0000000037,0.0000000000,0.0000000000,0.0000000000,0.000000,-0.000002,0.000000,0.0000,0.0000,0.0000,4162485.9846,664306.2200,4770707.5653,-8.3217,-1.3281,7.3958,1.499,0.239,-1.333,0.85047536856,0.15825900390,0.0000,2.362
24500,4162485.1599223907,664306.0883696080,4770708.2981934259,-8.1717,-1.3042,7.2625,1.499,0.239,-1.333,0.000,0.000,0.000,0.85047554295,0.15825900390,0.0000000047,0.0000000000,0.0000000000,0.0000000000,0.000000,-0.000002,0.000000,-0.0000,0.0000,0.0000,4162485.1599,664306.0884,4770708.2982,-8.1717,-1.3042,7.2625,1.499,0.239,-1.333,0.85047554295,0.15825900390,0.0000,2.362
24600,4162484.3502478376,664305.9591507125,4770709.0177851431,-8.0218,-1.2802,7.1293,1.499,0.239,-1.333,0.000,0.000,0.000,0.85047571416,0.15825900390,0.0000000047,0.0000000000,0.0000000000,0.0000000000,0.000000,-0.000002,0.000000,0.0000,0.0000,0.0000,4162484.3502,664305.9592,4770709.0178,-8.0218,-1.2802,7.1293,1.499,0.239,-1.333,0.85047571416,0.15825900390,0.0000,2.362
24700,4162483.5555671393,664305.8323247405,4770709.7240509512,-7.8718,-1.2563,6.9960,1.499,0.239,-1.333,0.000,0.000,0.000,0.85047588221,0.15825900390,0.0000000047,-0.0000000000,0.0000000000,0.0000000000,-0.000000,-0.000002,0.000000,0.0000,0.0000,0.0000,4162483.5556,664305.8323,4770709.7241,-7.8718,-1.2563,6.9960,1.499,0.239,-1.333,0.85047588221,0.15825900390,0.0000,2.362
24800,4162482.7758803028,664305.7078916932,4770710.4169908576,-7.7219,-1.2324,6.8628,1.499,0.239,-1.333,0.000,0.000,0.000,0.85047604708,0.15825900390,0.0000000037,-0.0000000000,0.0000000000,0.0000000000,-0.000000,-0.000002,0.000000,0.0000,0.0000,0.0000,4162482.7759,664305.7079,4770710.4170,-7.7219,-1.2324,6.8628,1.499,0.239,-1.333,0.85047604708,0.15825900390,0.0000,2.362
24900,4162482.0111873341,664305.5858515716,4770711.0966048706,-7.5720,-1.2084,6.7295,1.499,0.239,-1.333,0.000,0.000,0.000,0.85047620879,0.15825900390,0.0000000028,0.0000000000,0.0000000000,0.0000000000,0.000000,-0.000002,0.000000,0.0000,0.0000,0.0000,4162482.0112,664305.5859,4770711.0966,-7.5720,-1.2084,6.7295,1.499,0.239,-1.333,0.85047620879,0.15825900390,0.0000,2.362
25000,4162481.2614882397,664305.4662043769,4770711.7628929969,-7.4220,-1.1845,6.5963,1.499,0.239,-1.333,0.000,0.000,0.000,0.85047636732,0.15825900390,0.0000000047,0.0000000000,0.0000000000,0.0000000000,0.000000,-0.000002,0.000000,0.0000,0.0000,0.0000,4162481.2615,664305.4662,4770711.7629,-7.4220,-1.1845,6.5963,1.499,0.239,-1.333,0.85047636732,0.15825900390,0.0000,2.362
25100,4162480.5267830263,664305.3489501098,4770712.4158552438,-7.2721,-1.1606,6.4630,1.499,0.239,-1.333,0.000,0.000,0.000,0.85047652268,0.15825900390,0.0000000037,0.0000000000,0.0000000000,0.0000000000,0.000000,-0.000002,0.000000,0.0000,0.0000,0.0000,4162480.5268,664305.3490,4770712.4159,-7.2721,-1.1606,6.4630,1.499,0.239,-1.333,0.85047652268,0.15825900390,0.0000,2.362
25200,4162479.8070716993,664305.2340887715,4770713.0554916188,-7.1221,-1.1366,6.3297,1.499,0.239,-1.333,0.000,0.000,0.000,0.85047667487,0.15825900390,0.0000000028,0.0000000000,0.0000000000,0.0000000000,0.000000,-0.000002,0.000000,-0.0000,0.0000,0.0000,4162479.8071,664305.2341,4770713.0555,-7.1221,-1.1366,6.3297,1.499,0.239,-1.333,0.85047667487,0.15825900390,0.0000,2.362
25300,4162479.1023542653,664305.1216203629,4770713.6818021284,-6.9722,-1.1127,6.1965,1.499,0.239,-1.333,0.000,0.000,0.000,0.85047682390,0.15825900390,0.0000000037,-0.0000000000,0.0000000000,0.0000000000,-0.000000,-0.000001,0.000000,0.0000,0.0000,0.0000,4162479.1024,664305.1216,4770713.6818,-6.9722,-1.1127,6.1965,1.499,0.239,-1.333,0.85047682390,0.15825900390,0.0000,2.362
25400,4162478.4126307298,664305.0115448849,4770714.2947867792,-6.8223,-1.0888,6.0632,1.499,0.239,-1.333,0.000,0.000,0.000,0.85047696975,0.15825900390,0.0000000037,0.0000000000,0.0000000000,0.0000000000,0.000000,-0.000001,0.000000,-0.0000,0.0000,0.0000,4162478.4126,664305.0115,4770714.2948,-6.8223,-1.0888,6.0632,1.499,0.239,-1.333,0.85047696975,0.15825900390,0.0000,2.362
25500,4162477.7379010990,664304.9038623384,4770714.8944455786,-6.6723,-1.0649,5.9300,1.499,0.239,-1.333,0.000,0.000,0.000,0.85047711243,0.15825900390,0.0000000028,-0.0000000000,0.0000000000,0.0000000000,-0.000000,-0.000001,0.000000,-0.0000,0.0000,0.0000,4162477.7379,664304.9039,4770714.8944,-6.6723,-1.0649,5.9300,1.499,0.239,-1.333,0.85047711243,0.15825900390,0.0000,2.362
25600,4162477.0781653784,664304.7985727243,4770715.4807785321,-6.5224,-1.0409,5.7967,1.499,0.239,-1.333,0.000,0.000,0.000,0.85047725193,0.15825900390,0.0000000028,-0.0000000000,0.0000000000,0.0000000000,-0.000000,-0.000001,0.000000,-0.0000,0.0000,0.0000,4162477.0782,664304.7986,4770715.4808,-6.5224,-1.0409,5.7967,1.499,0.239,-1.333,0.85047725193,0.15825900390,0.0000,2.362
25700,4162476.4334235732,664304.6956760436,4770716.0537856473,-6.3724,-1.0170,5.6634,1.499,0.239,-1.333,0.000,0.000,0.000,0.85047738827,0.15825900390,0.0000000037,0.0000000000,0.0000000000,0.0000000000,0.000000,-0.000001,0.000000,-0.0000,0.0000,0.0000,4162476.4334,664304.6957,4770716.0538,-6.3724,-1.0170,5.6634,1.499,0.239,-1.333,0.85047738827,0.15825900390,0.0000,2.362
25800,4162475.8036756893,664304.5951722971,4770716.6134669296,-6.2225,-0.9931,5.5302,1.499,0.239,-1.333,0.000,0.000,0.000,0.85047752144,0.15825900390,0.0000000037,0.0000000000,0.0000000000,0.0000000000,0.000000,-0.000001,0.000000,-0.0000,0.0000,0.0000,4162475.8037,664304.5952,4770716.6135,-6.2225,-0.9931,5.5302,1.499,0.239,-1.333,0.85047752144,0.15825900390,0.0000,2.362
25900,4162475.1889217314,664304.4970614855,4770717.1598223848,-6.0726,-0.9691,5.3969,1.499,0.239,-1.333,0.000,0.000,0.000,0.85047765144,0.15825900390,0.0000000047,0.0000000000,0.0000000000,0.0000000000,0.000000,-0.000001,0.000000,0.0000,0.0000,0.0000,4162475.1889,664304.4971,4770717.1598,-6.0726,-0.9691,5.3969,1.499,0.239,-1.333,0.85047765144,0.15825900390,0.0000,2.362
26000,4162474.5891617048,664304.4013436098,4770717.6928520193,-5.9226,-0.9452,5.2637,1.499,0.239,-1.333,0.000,0.000,0.000,0.85047777826,0.15825900390,0.0000000037,0.0000000000,0.0000000000,0.0000000000,0.000000,-0.000001,0.000000,0.0000,0.0000,0.0000,4162474.5892,664304.4013,4770717.6929,-5.9226,-0.9452,5.2637,1.499,0.239,-1.333,0.85047777826,0.15825900390,0.0000,2.362
26100,4162474.0043956148,664304.3080186708,4770718.2125558387,-5.7727,-0.9213,5.1304,1.499,0.239,-1.333,0.000,0.000,0.000,0.85047790192,0.15825900390,0.0000000019,0.0000000000,0.0000000000,0.0000000000,0.000000,-0.000001,0.000000,0.0000,0.0000,0.0000,4162474.0044,664304.3080,4770718.2126,-5.7727,-0.9213,5.1304,1.499,0.239,-1.333,0.85047790192,0.15825900390,0.0000,2.362
26200,4162473.4346234659,664304.2170866692,4770718.7189338487,-5.6228,-0.8974,4.9972,1.499,0.239,-1.333,0.000,0.000,0.000,0.85047802241,0.15825900390,0.0000000037,0.0000000000,0.0000000000,0.0000000000,0.000000,-0.000001,0.000000,-0.0000,0.0000,0.0000,4162473.4346,664304.2171,4770718.7189,-5.6228,-0.8974,4.9972,1.499,0.239,-1.333,0.85047802241,0.15825900390,0.0000,2.362
26300,4162472.8798452630,664304.1285476057,4770719.2119860547,-5.4728,-0.8734,4.8639,1.499,0.239,-1.333,0.000,0.000,0.000,0.85047813972,0.15825900390,0.0000000019,0.0000000000,0.0000000000,0.0000000000,0.000000,-0.000001,0.000000,0.0000,0.0000,0.0000,4162472.8798,664304.1285,4770719.2120,-5.4728,-0.8734,4.8639,1.499,0.239,-1.333,0.85047813972,0.15825900390,0.0000,2.362
26400,4162472.3400610108,664304.0424014812,4770719.6917124623,-5.3229,-0.8495,4.7306,1.499,0.239,-1.333,0.000,0.000,0.000,0.85047825386,0.15825900390,0.0000000028,0.0000000000,0.0000000000,0.0000000000,0.000000,-0.000001,0.000000,-0.0000,0.0000,0.0000,4162472.3401,664304.0424,4770719.6917,-5.3229,-0.8495,4.7306,1.499,0.239,-1.333,0.85047825386,0.15825900390,0.0000,2.362
26500,4162471.8152707140,664303.9586482963,4770720.1581130764,-5.1729,-0.8256,4.5974,1.499,0.239,-1.333,0.000,0.000,0.000,0.85047836484,0.15825900390,0.0000000019,0.0000000000,0.0000000000,0.0000000000,0.000000,-0.000001,0.000000,0.0000,0.0000,0.0000,4162471.8153,664303.9586,4770720.1581,-5.1729,-0.8256,4.5974,1.499,0.239,-1.333,0.85047836484,0.15825900390,0.0000,2.362
26600,4162471.3054743768,664303.8772880516,4770720.6111879023,-5.0230,-0.8016,4.4641,1.499,0.239,-1.333,0.000,0.000,0.000,0.85047847264,0.15825900390,0.0000000028,-0.0000000000,0.0000000000,0.0000000000,-0.000000,-0.000001,0.000000,0.0000,0.0000,0.0000,4162471.3055,664303.8773,4770720.6112,-5.0230,-0.8016,4.4641,1.499,0.239,-1.333,0.85047847264,0.15825900390,0.0000,2.362
26700,4162470.8106720033,664303.7983207480,4770721.0509369448,-4.8731,-0.7777,4.3309,1.499,0.239,-1.333,0.000,0.000,0.000,0.85047857727,0.15825900390,0.0000000019,0.0000000000,0.0000000000,0.0000000000,0.000000,-0.000001,0.000000,0.0000,0.0000,0.0000,4162470.8107,664303.7983,4770721.0509,-4.8731,-0.7777,4.3309,1.499,0.239,-1.333,0.85047857727,0.15825900390,0.0000,2.362
26800,4162470.3308635978,664303.7217463861,4770721.4773602085,-4.7231,-0.7538,4.1976,1.499,0.239,-1.333,0.000,-0.000,0.000,0.85047867873,0.15825900390,0.0000000019,0.0000000000,0.0000000000,0.0000000000,0.000000,-0.000001,0.000000,0.0000,0.0000,0.0000,4162470.3309,664303.7217,4770721.4774,-4.7231,-0.7538,4.1976,1.499,0.239,-1.333,0.85047867873,0.15825900390,0.0000,2.362
26900,4162469.8660491640,664303.6475649666,4770721.8904576981,-4.5732,-0.7298,4.0643,1.499,0.239,-1.333,0.000,0.000,0.000,0.85047877702,0.15825900390,0.0000000019,0.0000000000,0.0000000000,0.0000000000,0.000000,-0.000001,0.000000,-0.0000,0.0000,0.0000,4162469.8660,664303.6476,4770721.8905,-4.5732,-0.7298,4.0643,1.499,0.239,-1.333,0.85047877702,0.15825900390,0.0000,2.362
27000,4162469.4162287060,664303.5757764899,4770722.2902294183,-4.4232,-0.7059,3.9311,1.499,0.239,-1.333,0.000,0.000,0.000,0.85047887214,0.15825900390,0.0000000009,0.0000000000,0.0000000000,0.0000000000,0.000000,-0.000001,0.000000,-0.0000,0.0000,0.0000,4162469.4162,664303.5758,4770722.2902,-4.4232,-0.7059,3.9311,1.499,0.239,-1.333,0.85047887214,0.15825900390,0.0000,2.362
27100,4162468.9814022277,664303.5063809567,4770722.6766753737,-4.2733,-0.6820,3.7978,1.499,0.239,-1.333,0.000,0.000,0.000,0.85047896409,0.15825900390,0.0000000019,0.0000000000,0.0000000000,0.0000000000,0.000000,-0.000001,0.000000,-0.0000,0.0000,0.0000,4162468.9814,664303.5064,4770722.6767,-4.2733,-0.6820,3.7978,1.499,0.239,-1.333,0.85047896409,0.15825900390,0.0000,2.362
27200,4162468.5615697326,664303.4393783676,4770723.0497955680,-4.1234,-0.6581,3.6646,1.499,0.239,-1.333,0.000,0.000,0.000,0.85047905287,0.15825900390,0.0000000019,-0.0000000000,0.0000000000,0.0000000000,-0.000000,-0.000001,0.000000,-0.0000,0.0000,0.0000,4162468.5616,664303.4394,4770723.0498,-4.1234,-0.6581,3.6646,1.499,0.239,-1.333,0.85047905287,0.15825900390,0.0000,2.362
27300,4162468.1567312242,664303.3747687233,4770723.4095900049,-3.9734,-0.6341,3.5313,1.499,0.239,-1.333,0.000,0.000,0.000,0.85047913848,0.15825900390,0.0000000019,0.0000000000,0.0000000000,0.0000000000,0.000000,-0.000001,0.000000,-0.0000,0.0000,0.0000,4162468.1567,664303.3748,4770723.4096,-3.9734,-0.6341,3.5313,1.499,0.239,-1.333,0.85047913848,0.15825900390,0.0000,2.362
27400,4162467.7668867060,664303.3125520240,4770723.7560586892,-3.8235,-0.6102,3.3981,1.499,0.239,-1.333,0.000,0.000,-0.000,0.85047922092,0.15825900390,0.0000000028,0.0000000000,0.0000000000,0.0000000000,0.000000,-0.000001,0.000000,-0.0000,0.0000,-0.0000,4162467.7669,664303.3126,4770723.7561,-3.8235,-0.6102,3.3981,1.499,0.239,-1.333,0.85047922092,0.15825900390,0.0000,2.362
27500,4162467.3920361809,664303.2527282706,4770724.0892016245,-3.6735,-0.5863,3.2648,1.499,0.239,-1.333,0.000,0.000,0.000,0.85047930018,0.15825900390,0.0000000019,-0.0000000000,0.0000000000,0.0000000000,-0.000000,-0.000001,0.000000,0.0000,0.0000,0.0000,4162467.3920,664303.2527,4770724.0892,-3.6735,-0.5863,3.2648,1.499,0.239,-1.333,0.85047930018,0.15825900390,0.0000,2.362
27600,4162467.0321796522,664303.1952974633,4770724.4090188136,-3.5236,-0.5623,3.1315,1.499,0.239,-1.333,0.000,0.000,0.000,0.85047937628,0.15825900390,0.0000000028,0.0000000000,0.0000000000,0.0000000000,0.000000,-0.000001,0.000000,-0.0000,0.0000,0.0000,4162467.0322,664303.1953,4770724.4090,-3.5236,-0.5623,3.1315,1.499,0.239,-1.333,0.85047937628,0.15825900390,0.0000,2.362
27700,4162466.6873171232,664303.1402596028,4770724.7155102603,-3.3737,-0.5384,2.9983,1.499,0.239,-1.333,0.000,0.000,0.000,0.85047944920,0.15825900390,0.0000000009,0.0000000000,0.0000000000,0.0000000000,0.000000,-0.000001,0.000000,0.0000,0.0000,0.0000,4162466.6873,664303.1403,4770724.7155,-3.3737,-0.5384,2.9983,1.499,0.239,-1.333,0.85047944920,0.15825900390,0.0000,2.362
27800,4162466.3574485965,664303.0876146894,4770725.0086759683,-3.2237,-0.5145,2.8650,1.499,0.239,-1.333,0.000,0.000,0.000,0.85047951896,0.15825900390,0.0000000019,0.0000000000,0.0000000000,0.0000000000,0.000000,-0.000001,0.000000,0.0000,0.0000,0.0000,4162466.3574,664303.0876,4770725.0087,-3.2237,-0.5145,2.8650,1.499,0.239,-1.333,0.85047951896,0.15825900390,0.0000,2.362
27900,4162466.0425740751,664303.0373627236,4770725.2885159403,-3.0738,-0.4906,2.7318,1.499,0.239,-1.333,0.000,0.000,-0.000,0.85047958554,0.15825900390,0.0000000009,0.0000000000,0.0000000000,0.0000000000,0.000000,-0.000001,0.000000,0.0000,0.0000,0.0000,4162466.0426,664303.0374,4770725.2885,-3.0738,-0.4906,2.7318,1.499,0.239,-1.333,0.85047958554,0.15825900390,0.0000,2.362
28000,4162465.7426935611,664302.9895037059,4770725.5550301801,-2.9238,-0.4666,2.5985,1.499,0.239,-1.333,0.000,0.000,0.000,0.85047964895,0.15825900390,0.0000000019,0.0000000000,0.0000000000,0.0000000000,0.000000,-0.000001,0.000000,-0.0000,0.0000,-0.0000,4162465.7427,664302.9895,4770725.5550,-2.9238,-0.4666,2.5985,1.499,0.239,-1.333,0.85047964895,0.15825900390,0.0000,2.362
28100,4162465.4578070575,664302.9440376365,4770725.8082186896,-2.7739,-0.4427,2.4653,1.499,0.239,-1.333,0.000,0.000,0.000,0.85047970920,0.15825900390,0.0000000019,-0.0000000000,0.0000000000,0.0000000000,-0.000000,-0.000001,0.000000,0.0000,0.0000,0.0000,4162465.4578,664302.9440,4770725.8082,-2.7739,-0.4427,2.4653,1.499,0.239,-1.333,0.85047970920,0.15825900390,0.0000,2.362
28200,4162465.1879145666,664302.9009645160,4770726.0480814725,-2.6240,-0.4188,2.3320,1.499,0.239,-1.333,0.000,-0.000,0.000,0.85047976627,0.15825900390,0.0000000009,0.0000000000,0.0000000000,0.0000000000,0.000000,-0.000001,0.000000,0.0000,0.0000,0.0000,4162465.1879,664302.9010,4770726.0481,-2.6240,-0.4188,2.3320,1.499,0.239,-1.333,0.85047976627,0.15825900390,0.0000,2.362
28300,4162464.9330160902,664302.8602843446,4770726.2746185306,-2.4740,-0.3948,2.1987,1.499,0.239,-1.333,0.000,0.000,0.000,0.85047982017,0.15825900390,0.0000000028,0.0000000000,0.0000000000,0.0000000000,0.000000,-0.000001,0.000000,-0.0000,0.0000,-0.0000,4162464.9330,664302.8603,4770726.2746,-2.4740,-0.3948,2.1987,1.499,0.239,-1.333,0.85047982017,0.15825900390,0.0000,2.362
28400,4162464.6931116311,664302.8219971227,4770726.4878298668,-2.3241,-0.3709,2.0655,1.499,0.239,-1.333,0.000,0.000,0.000,0.85047987090,0.15825900390,0.0000000028,-0.0000000000,0.0000000000,0.0000000000,-0.000000,-0.000000,0.000000,0.0000,0.0000,0.0000,4162464.6931,664302.8220,4770726.4878,-2.3241,-0.3709,2.0655,1.499,0.239,-1.333,0.85047987090,0.15825900390,0.0000,2.362
28500,4162464.4682011907,664302.7861028507,4770726.6877154829,-2.1741,-0.3470,1.9322,1.499,0.239,-1.333,0.000,0.000,0.000,0.85047991846,0.15825900390,0.0000000019,0.0000000000,0.0000000000,0.0000000000,0.000000,-0.000000,0.000000,-0.0000,0.0000,0.0000,4162464.4682,664302.7861,4770726.6877,-2.1741,-0.3470,1.9322,1.499,0.239,-1.333,0.85047991846,0.15825900390,0.0000,2.362
28600,4162464.2582847713,664302.7526015288,4770726.8742753817,-2.0242,-0.3230,1.7990,1.499,0.239,-1.333,0.000,0.000,0.000,0.85047996285,0.15825900390,0.0000000000,0.0000000000,0.0000000000,0.0000000000,0.000000,-0.000000,0.000000,0.0000,0.0000,0.0000,4162464.2583,664302.7526,4770726.8743,-2.0242,-0.3230,1.7990,1.499,0.239,-1.333,0.85047996285,0.15825900390,0.0000,2.362
28700,4162464.0633623744,664302.7214931572,4770727.0475095650,-1.8743,-0.2991,1.6657,1.499,0.239,-1.333,0.000,0.000,0.000,0.85048000407,0.15825900390,0.0000000019,0.0000000000,0.0000000000,0.0000000000,0.000000,-0.000000,0.000000,-0.0000,0.0000,0.0000,4162464.0634,664302.7215,4770727.0475,-1.8743,-0.2991,1.6657,1.499,0.239,-1.333,0.85048000407,0.15825900390,0.0000,2.362
28800,4162463.8834340018,664302.6927777363,4770727.2074180348,-1.7243,-0.2752,1.5325,1.499,0.239,-1.333,-0.000,-0.000,-0.000,0.85048004212,0.15825900390,0.0000000019,0.0000000000,0.0000000000,0.0000000000,0.000000,-0.000000,0.000000,-0.0000,0.0000,-0.0000,4162463.8834,664302.6928,4770727.2074,-1.7243,-0.2752,1.5325,1.499,0.239,-1.333,0.85048004212,0.15825900390,0.0000,2.362
28900,4162463.7184996554,664302.6664552664,4770727.3540007928,-1.5744,-0.2513,1.3992,1.499,0.239,-1.333,-0.000,0.000,0.000,0.85048007699,0.15825900390,0.0000000009,0.0000000000,0.0000000000,0.0000000000,0.000000,-0.000000,0.000000,0.0000,0.0000,0.0000,4162463.7185,664302.6665,4770727.3540,-1.5744,-0.2513,1.3992,1.499,0.239,-1.333,0.85048007699,0.15825900390,0.0000,2.362
29000,4162463.5685593360,664302.6425257475,4770727.4872578401,-1.4244,-0.2273,1.2659,1.499,0.239,-1.333,0.000,0.000,0.000,0.85048010870,0.15825900390,0.0000000009,0.0000000000,0.0000000000,0.0000000000,0.000000,-0.000000,0.000000,-0.0000,0.0000,0.0000,4162463.5686,664302.6425,4770727.4873,-1.4244,-0.2273,1.2659,1.499,0.239,-1.333,0.85048010870,0.15825900390,0.0000,2.362
29100,4162463.4336130447,664302.6209891799,4770727.6071891785,-1.2745,-0.2034,1.1327,1.499,0.239,-1.333,-0.000,0.000,-0.000,0.85048013724,0.15825900390,0.0000000019,0.0000000000,0.0000000000,0.0000000000,0.000000,-0.000000,0.000000,0.0000,0.0000,-0.0000,4162463.4336,664302.6210,4770727.6072,-1.2745,-0.2034,1.1327,1.499,0.239,-1.333,0.85048013724,0.15825900390,0.0000,2.362
29200,4162463.3136607832,664302.6018455639,4770727.7137948098,-1.1246,-0.1795,0.9994,1.499,0.239,-1.333,0.000,0.000,0.000,0.85048016260,0.15825900390,0.0000000009,-0.0000000000,0.0000000000,0.0000000000,-0.000000,-0.000000,0.000000,0.0000,0.0000,0.0000,4162463.3137,664302.6018,4770727.7138,-1.1246,-0.1795,0.9994,1.499,0.239,-1.333,0.85048016260,0.15825900390,0.0000,2.362
29300,4162463.2087025521,664302.5850948994,4770727.8070747340,-0.9746,-0.1555,0.8662,1.499,0.239,-1.333,0.000,-0.000,0.000,0.85048018480,0.15825900390,0.0000000028,0.0000000000,0.0000000000,0.0000000000,0.000000,-0.000000,0.000000,-0.0000,0.0000,-0.0000,4162463.2087,664302.5851,4770727.8071,-0.9746,-0.1555,0.8662,1.499,0.239,-1.333,0.85048018480,0.15825900390,0.0000,2.362
29400,4162463.1187383523,664302.5707371868,4770727.8870289531,-0.8247,-0.1316,0.7329,1.499,0.239,-1.333,0.000,0.000,0.000,0.85048020382,0.15825900390,0.0000000000,-0.0000000000,0.0000000000,0.0000000000,-0.000000,-0.000000,0.000000,-0.0000,0.0000,0.0000,4162463.1187,664302.5707,4770727.8870,-0.8247,-0.1316,0.7329,1.499,0.239,-1.333,0.85048020382,0.15825900390,0.0000,2.362
29500,4162463.0437681847,664302.5587724261,4770727.9536574678,-0.6747,-0.1077,0.5997,1.499,0.239,-1.333,0.000,-0.000,0.000,0.85048021967,0.15825900390,0.0000000000,0.0000000000,0.0000000000,0.0000000000,0.000000,-0.000000,0.000000,0.0000,0.0000,0.0000,4162463.0438,664302.5588,4770727.9537,-0.6747,-0.1077,0.5997,1.499,0.239,-1.333,0.85048021967,0.15825900390,0.0000,2.362
29600,4162462.9837920498,664302.5492006175,4770728.0069602784,-0.5248,-0.0838,0.4664,1.499,0.239,-1.333,0.000,-0.000,-0.000,0.85048023236,0.15825900390,0.0000000009,-0.0000000000,0.0000000000,0.0000000000,-0.000000,-0.000000,0.000000,0.0000,0.0000,0.0000,4162462.9838,664302.5492,4770728.0070,-0.5248,-0.0838,0.4664,1.499,0.239,-1.333,0.85048023236,0.15825900390,0.0000,2.362
29700,4162462.9388099480,664302.5420217609,4770728.0469373865,-0.3749,-0.0598,0.3331,1.499,0.239,-1.333,-0.000,0.000,0.000,0.85048024187,0.15825900390,0.0000000000,0.0000000000,0.0000000000,0.0000000000,0.000000,-0.000000,0.000000,0.0000,0.0000,0.0000,4162462.9388,664302.5420,4770728.0469,-0.3749,-0.0598,0.3331,1.499,0.239,-1.333,0.85048024187,0.15825900390,0.0000,2.362
29800,4162462.9088218804,664302.5372358565,4770728.0735887913,-0.2249,-0.0359,0.1999,1.499,0.239,-1.333,0.000,-0.000,-0.000,0.85048024821,0.15825900390,0.0000000009,-0.0000000000,0.0000000000,0.0000000000,-0.000000,-0.000000,0.000000,0.0000,0.0000,0.0000,4162462.9088,664302.5372,4770728.0736,-0.2249,-0.0359,0.1999,1.499,0.239,-1.333,0.85048024821,0.15825900390,0.0000,2.362
29900,4162462.8938278463,664302.5348429043,4770728.0869144937,-0.0750,-0.0120,0.0666,1.499,0.239,-1.333,-14.994,-2.393,13.326,0.85048025138,0.15825900390,0.0000000000,0.0000000000,0.0000000000,0.0000000000,0.000000,-0.000000,0.000000,-0.0000,0.0000,0.0000,4162462.8938,664302.5348,4770728.0869,-0.0750,-0.0120,0.0666,1.499,0.239,-1.333,0.85048025138,0.15825900390,0.0000,2.362
30000,4162462.8913288405,664302.5344440789,4770728.0891354438,0.0000,0.0000,-0.0000,-0.000,-0.000,0.000,-30.294,-4.835,26.923,0.85048025191,0.15825900390,0.0000000000,0.0000000000,0.0000000000,0.0000000000,0.000000,0.000000,0.000000,0.0000,0.0000,0.0000,4162462.8913,664302.5344,4770728.0891,0.0000,0.0000,-0.0000,-0.000,-0.000,0.000,0.85048025191,0.15825900390,0.0000,2.362
30100,4162462.8862798288,664302.5336382888,4770728.0936226705,-0.1515,-0.0242,0.1346,-3.029,-0.483,2.692,0.000,-0.000,0.000,0.85048025298,0.15825900390,0.0000000000,0.0000000000,0.0000000000,0.0000000000,0.000000,-0.000000,0.000000,-0.0000,-0.0000,-0.0000,4162462.8863,664302.5336,4770728.0936,-0.1515,-0.0242,0.1346,-3.029,-0.483,2.692,0.85048025298,0.15825900390,0.0000,2.362
30200,4162462.8559857598,664302.5288035487,4770728.1205460280,-0.4544,-0.0725,0.4039,-3.029,-0.483,2.692,-0.000,-0.000,-0.000,0.85048025938,0.15825900390,0.0000000000,-0.0000000000,0.0000000000,0.0000000000,-0.000000,-0.000000,0.000000,0.0000,-0.0000,0.0000,4162462.8560,664302.5288,4770728.1205,-0.4544,-0.0725,0.4039,-3.029,-0.483,2.692,0.85048025938,0.15825900390,0.0000,2.362
30300,4162462.7953976216,664302.5191340682,4770728.1743927430,-0.7574,-0.1209,0.6731,-3.029,-0.483,2.692,-0.000,0.000,-0.000,0.85048027219,0.15825900390,0.0000000009,0.0000000000,0.0000000000,0.0000000000,0.000000,-0.000000,0.000000,-0.0000,-0.0000,0.0000,4162462.7954,664302.5191,4770728.1744,-0.7574,-0.1209,0.6731,-3.029,-0.483,2.692,0.85048027219,0.15825900390,0.0000,2.362
30400,4162462.7045154129,664302.5046298471,4770728.2551628137,-1.0603,-0.1692,0.9423,-3.029,-0.483,2.692,-0.000,-0.000,0.000,0.85048029141,0.15825900390,0.0000000009,-0.0000000000,0.0000000000,0.0000000000,-0.000000,-0.000000,0.000000,0.0000,-0.0000,0.0000,4162462.7045,664302.5046,4770728.2552,-1.0603,-0.1692,0.9423,-3.029,-0.483,2.692,0.85048029141,0.15825900390,0.0000,2.362
30500,4162462.5833391324,664302.4852908854,4770728.3628562381,-1.3632,-0.2176,1.2116,-3.029,-0.483,2.692,-0.000,-0.000,-0.000,0.85048031704,0.15825900390,0.0000000000,0.0000000000,0.0000000000,0.0000000000,0.000000,-0.000000,0.000000,0.0000,-0.0000,0.0000,4162462.5833,664302.4853,4770728.3629,-1.3632,-0.2176,1.2116,-3.029,-0.483,2.692,0.85048031704,0.15825900390,0.0000,2.362
30600,4162462.4318687776,664302.4611171827,4770728.4974730145,-1.6662,-0.2659,1.4808,-3.029,-0.483,2.692,-0.000,-0.000,-0.000,0.85048034907,0.15825900390,0.0000000000,0.0000000000,0.0000000000,0.0000000000,0.000000,-0.000000,0.000000,-0.0000,-0.0000,-0.0000,4162462.4319,664302.4611,4770728.4975,-1.6662,-0.2659,1.4808,-3.029,-0.483,2.692,0.85048034907,0.15825900390,0.0000,2.362
30700,4162462.2501043463,664302.4321087386,4770728.6590131400,-1.9691,-0.3143,1.7500,-3.029,-0.483,2.692,-0.000,-0.000,-0.000,0.85048038750,0.15825900390,-0.0000000009,0.0000000000,0.0000000000,0.0000000000,0.000000,-0.000000,0.000000,0.0000,-0.0000,0.0000,4162462.2501,664302.4321,4770728.6590,-1.9691,-0.3143,1.7500,-3.029,-0.483,2.692,0.85048038750,0.15825900390,-0.0000,2.362
30800,4162462.0380458352,664302.3982655525,4770728.8474766109,-2.2721,-0.3626,2.0193,-3.029,-0.483,2.692,-0.000,-0.000,-0.000,0.85048043235,0.15825900390,0.0000000000,0.0000000000,0.0000000000,0.0000000000,0.000000,-0.000000,0.000000,-0.0000,-0.0000,0.0000,4162462.0380,664302.3983,4770728.8475,-2.2721,-0.3626,2.0193,-3.029,-0.483,2.692,0.85048043235,0.15825900390,0.0000,2.362
30900,4162461.7956932411,664302.3595876239,4770729.0628634226,-2.5750,-0.4110,2.2885,-3.029,-0.483,2.692,-0.000,-0.000,-0.000,0.85048048359,0.15825900390,0.0000000000,0.0000000000,0.0000000000,0.0000000000,0.000000,-0.000001,0.000000,-0.0000,-0.0000,0.0000,4162461.7957,664302.3596,4770729.0629,-2.5750,-0.4110,2.2885,-3.029,-0.483,2.692,0.85048048359,0.15825900390,0.0000,2.362
31000,4162461.5230465597,664302.3160749521,4770729.3051735712,-2.8779,-0.4593,2.5577,-3.029,-0.483,2.692,-0.000,-0.000,-0.000,0.85048054125,0.15825900390,0.0000000019,0.0000000000,0.0000000000,0.0000000000,0.000000,-0.000001,0.000000,-0.0000,-0.0000,0.0000,4162461.5230,664302.3161,4770729.3052,-2.8779,-0.4593,2.5577,-3.029,-0.483,2.692,0.85048054125,0.15825900390,0.0000,2.362
31100,4162461.2201057863,664302.2677275365,4770729.5744070504,-3.1809,-0.5076,2.8270,-3.029,-0.483,2.692,-0.000,-0.000,-0.000,0.85048060531,0.15825900390,0.0000000009,0.0000000000,0.0000000000,0.0000000000,0.000000,-0.000001,0.000000,-0.0000,-0.0000,0.0000,4162461.2201,664302.2677,4770729.5744,-3.1809,-0.5076,2.8270,-3.029,-0.483,2.692,0.85048060531,0.15825900390,0.0000,2.362
31200,4162460.8868709160,664302.2145453761,4770729.8705638554,-3.4838,-0.5560,3.0962,-3.029,-0.483,2.692,-0.000,-0.000,-0.000,0.85048067577,0.15825900390,0.0000000019,0.0000000000,0.0000000000,0.0000000000,0.000000,-0.000001,0.000000,-0.0000,-0.0000,0.0000,4162460.8869,664302.2145,4770729.8706,-3.4838,-0.5560,3.0962,-3.029,-0.483,2.692,0.85048067577,0.15825900390,0.0000,2.362
31300,4162460.5233419430,664302.1565284702,4770730.1936439788,-3.7868,-0.6043,3.3654,-3.029,-0.483,2.692,-0.000,-0.000,-0.000,0.85048075265,0.15825900390,0.0000000009,0.0000000000,0.0000000000,0.0000000000,0.000000,-0.000001,0.000000,0.0000,-0.0000,0.0000,4162460.5233,664302.1565,4770730.1936,-3.7868,-0.6043,3.3654,-3.029,-0.483,2.692,0.85048075265,0.15825900390,0.0000,2.362
31400,4162460.1295188614,664302.0936768177,4770730.5436474141,-4.0897,-0.6527,3.6347,-3.029,-0.483,2.692,-0.000,-0.000,-0.000,0.85048083593,0.15825900390,0.0000000009,0.0000000000,0.0000000000,0.0000000000,0.000000,-0.000001,0.000000,0.0000,-0.0000,0.0000,4162460.1295,664302.0937,4770730.5436,-4.0897,-0.6527,3.6347,-3.029,-0.483,2.692,0.85048083593,0.15825900390,0.0000,2.362
31500,4162459.7054016641,664302.0259904176,4770730.9205741528,-4.3926,-0.7010,3.9039,-3.029,-0.483,2.692,-0.000,-0.000,-0.000,0.85048092561,0.15825900390,0.0000000000,0.0000000000,0.0000000000,0.0000000000,0.000000,-0.000001,0.000000,0.0000,-0.0000,-0.0000,4162459.7054,664302.0260,4770730.9206,-4.3926,-0.7010,3.9039,-3.029,-0.483,2.692,0.85048092561,0.15825900390,0.0000,2.362
31600,4162459.2509903447,664301.9534692686,4770731.3244241877,-4.6956,-0.7494,4.1731,-3.029,-0.483,2.692,-0.000,-0.000,-0.000,0.85048102170,0.15825900390,0.0000000009,-0.0000000000,0.0000000000,0.0000000000,-0.000000,-0.000001,0.000000,-0.0000,-0.0000,0.0000,4162459.2510,664301.9535,4770731.3244,-4.6956,-0.7494,4.1731,-3.029,-0.483,2.692,0.85048102170,0.15825900390,0.0000,2.362
