2,0,1000,1,GDOP, 1246190400.0
Time_ms,Pos_X,Pos_Y,Pos_Z,Vel_X,Vel_Y,Vel_Z,Acc_X,Acc_Y,Acc_Z,Jerk_X,Jerk_Y,Jerk_Z,Lat,Long,Height,Heading,Elevation,Bank,Ang-vel_X,Ang-vel_Y,Ang-vel_Z,Ang-acc_X,Ang-acc_Y,Ang-acc_Z,Ant1_Pos_X,Ant1_Pos_Y,Ant1_Pos_Z,Ant1_Vel_X,Ant1_Vel_Y,Ant1_Vel_Z,Ant1_Acc_X,Ant1_Acc_Y,Ant1_Acc_Z,Ant1_Lat,Ant1_Long,Ant1_Height,Ant1_DOP
0,4162683.1460,664344.7750,4770531.3520,-1.5760,9.8750,0.0000,0.000,0.000,0.000,0.000,0.000,0.000,0.85043344228,0.15826066466,0.0003,1.729000000,0.000000000,0.000000000,0.00000000000,0.00000000000,0.00000000000,0.00000000000,0.00000000000,0.00000000000,4162683.1460,664344.7750,4770531.3520,-1.5760,9.8750,0.0000,0.000,0.000,0.000,0.85043344228,0.15826066466,0.0003,2.359
1000,4162681.5700,664354.6500,4770531.3520,-1.5760,9.8750,0.0000,0.000,0.000,0.000,0.000,0.000,0.000,0.85043344228,0.15826303693,0.0003,1.729000000,0.000000000,0.000000000,0.00000000000,0.00000000000,0.00000000000,0.00000000000,0.00000000000,0.00000000000,4162681.5700,664354.6500,4770531.3520,-1.5760,9.8750,0.0000,0.000,0.000,0.000,0.85043344228,0.15826303693,0.0003,2.359
2000,4162679.9940,664364.5250,4770531.3520,-1.5760,9.8750,0.0000,0.000,0.000,0.000,0.000,0.000,0.000,0.85043344228,0.15826540920,0.0004,1.729000000,0.000000000,0.000000000,0.00000000000,0.00000000000,0.00000000000,0.00000000000,0.00000000000,0.00000000000,4162679.9940,664364.5250,4770531.3520,-1.5760,9.8750,0.0000,0.000,0.000,0.000,0.85043344228,0.15826540920,0.0004,2.359
3000,4162678.4180,664374.4000,4770531.3520,-1.5760,9.8750,0.0000,0.000,0.000,0.000,0.000,0.000,0.000,0.85043344227,0.15826778147,0.0004,1.729000000,0.000000000,0.000000000,0.00000000000,0.00000000000,0.00000000000,0.00000000000,0.00000000000,0.00000000000,4162678.4180,664374.4000,4770531.3520,-1.5760,9.8750,0.0000,0.000,0.000,0.000,0.85043344227,0.15826778147,0.0004,2.359
4000,4162676.8420,664384.2750,4770531.3520,-1.5760,9.8750,0.0000,0.000,0.000,0.000,0.000,0.000,0.000,0.85043344226,0.15827015373,0.0005,1.729000000,0.000000000,0.000000000,0.00000000000,0.00000000000,0.00000000000,0.00000000000,0.00000000000,0.00000000000,4162676.8420,664384.2750,4770531.3520,-1.5760,9.8750,0.0000,0.000,0.000,0.000,0.85043344226,0.15827015373,0.0005,2.359
5000,4162675.2660,664394.1500,4770531.3520,-1.5760,9.8750,0.0000,0.000,0.000,0.000,0.000,0.000,0.000,0.85043344225,0.15827252600,0.0005,1.729000000,0.000000000,0.000000000,0.00000000000,0.00000000000,0.00000000000,0.00000000000,0.00000000000,0.00000000000,4162675.2660,664394.1500,4770531.3520,-1.5760,9.8750,0.0000,0.000,0.000,0.000,0.85043344225,0.15827252600,0.0005,2.359
6000,4162673.6900,664404.0250,4770531.3520,-1.5760,9.8750,0.0000,0.000,0.000,0.000,0.000,0.000,0.000,0.85043344223,0.15827489827,0.0006,1.729000000,0.000000000,0.000000000,0.00000000000,0.00000000000,0.00000000000,0.00000000000,0.00000000000,0.00000000000,4162673.6900,664404.0250,4770531.3520,-1.5760,9.8750,0.0000,0.000,0.000,0.000,0.85043344223,0.15827489827,0.0006,2.360
7000,4162672.1140,664413.9000,4770531.3520,-1.5760,9.8750,0.0000,0.000,0.000,0.000,0.000,0.000,0.000,0.85043344221,0.15827727054,0.0007,1.729000000,0.000000000,0.000000000,0.00000000000,0.00000000000,0.00000000000,0.00000000000,0.00000000000,0.00000000000,4162672.1140,664413.9000,4770531.3520,-1.5760,9.8750,0.0000,0.000,0.000,0.000,0.85043344221,0.15827727054,0.0007,2.360
8000,4162670.5380,664423.7750,4770531.3520,-1.5760,9.8750,0.0000,0.000,0.000,0.000,0.000,0.000,0.000,0.85043344219,0.15827964280,0.0009,1.729000000,0.000000000,0.000000000,0.00000000000,0.00000000000,0.00000000000,0.00000000000,0.00000000000,0.00000000000,4162670.5380,664423.7750,4770531.3520,-1.5760,9.8750,0.0000,0.000,0.000,0.000,0.85043344219,0.15827964280,0.0009,2.360
9000,4162668.9620,664433.6500,4770531.3520,-1.5760,9.8750,0.0000,0.000,0.000,0.000,0.000,0.000,0.000,0.85043344217,0.15828201507,0.0010,1.729000000,0.000000000,0.000000000,0.00000000000,0.00000000000,0.00000000000,0.00000000000,0.00000000000,0.00000000000,4162668.9620,664433.6500,4770531.3520,-1.5760,9.8750,0.0000,0.000,0.000,0.000,0.85043344217,0.15828201507,0.0010,2.360
10000,4162667.3860,664443.5250,4770531.3520,-1.5760,9.8750,0.0000,0.000,0.000,0.000,0.000,0.000,0.000,0.85043344214,0.15828438734,0.0011,1.729000000,0.000000000,0.000000000,0.00000000000,0.00000000000,0.00000000000,0.00000000000,0.00000000000,0.00000000000,4162667.3860,664443.5250,4770531.3520,-1.5760,9.8750,0.0000,0.000,0.000,0.000,0.85043344214,0.15828438734,0.0011,2.360
11000,4162665.8100,664453.4000,4770531.3520,-1.5760,9.8750,0.0000,0.000,0.000,0.000,0.000,0.000,0.000,0.85043344211,0.15828675961,0.0013,1.729000000,0.000000000,0.000000000,0.00000000000,0.00000000000,0.00000000000,0.00000000000,0.00000000000,0.00000000000,4162665.8100,664453.4000,4770531.3520,-1.5760,9.8750,0.0000,0.000,0.000,0.000,0.85043344211,0.15828675961,0.0013,2.360
12000,4162664.2340,664463.2750,4770531.3520,-1.5760,9.8750,0.0000,0.000,0.000,0.000,0.000,0.000,0.000,0.85043344208,0.15828913188,0.0015,1.729000000,0.000000000,0.000000000,0.00000000000,0.00000000000,0.00000000000,0.00000000000,0.00000000000,0.00000000000,4162664.2340,664463.2750,4770531.3520,-1.5760,9.8750,0.0000,0.000,0.000,0.000,0.85043344208,0.15828913188,0.0015,2.360
13000,4162662.6580,664473.1500,4770531.3520,-1.5760,9.8750,0.0000,0.000,0.000,0.000,0.000,0.000,0.000,0.85043344204,0.15829150414,0.0017,1.729000000,0.000000000,0.000000000,0.00000000000,0.00000000000,0.00000000000,0.00000000000,0.00000000000,0.00000000000,4162662.6580,664473.1500,4770531.3520,-1.5760,9.8750,0.0000,0.000,0.000,0.000,0.85043344204,0.15829150414,0.0017,2.360
14000,4162661.0820,664483.0250,4770531.3520,-1.5760,9.8750,0.0000,0.000,0.000,0.000,0.000,0.000,0.000,0.85043344200,0.15829387641,0.0019,1.729000000,0.000000000,0.000000000,0.00000000000,0.00000000000,0.00000000000,0.00000000000,0.00000000000,0.00000000000,4162661.0820,664483.0250,4770531.3520,-1.5760,9.8750,0.0000,0.000,0.000,0.000,0.85043344200,0.15829387641,0.0019,2.360
15000,4162659.5060,664492.9000,4770531.3520,-1.5760,9.8750,0.0000,0.000,0.000,0.000,0.000,0.000,0.000,0.85043344196,0.15829624868,0.0021,1.729000000,0.000000000,0.000000000,0.00000000000,0.00000000000,0.00000000000,0.00000000000,0.00000000000,0.00000000000,4162659.5060,664492.9000,4770531.3520,-1.5760,9.8750,0.0000,0.000,0.000,0.000,0.85043344196,0.15829624868,0.0021,2.360
16000,4162657.9300,664502.7750,4770531.3520,-1.5760,9.8750,0.0000,0.000,0.000,0.000,0.000,0.000,0.000,0.85043344192,0.15829862095,0.0024,1.729000000,0.000000000,0.000000000,0.00000000000,0.00000000000,0.00000000000,0.00000000000,0.00000000000,0.00000000000,4162657.9300,664502.7750,4770531.3520,-1.5760,9.8750,0.0000,0.000,0.000,0.000,0.85043344192,0.15829862095,0.0024,2.360
17000,4162656.3540,664512.6500,4770531.3520,-1.5760,9.8750,0.0000,0.000,0.000,0.000,0.000,0.000,0.000,0.85043344187,0.15830099322,0.0026,1.729000000,0.000000000,0.000000000,0.00000000000,0.00000000000,0.00000000000,0.00000000000,0.00000000000,0.00000000000,4162656.3540,664512.6500,4770531.3520,-1.5760,9.8750,0.0000,0.000,0.000,0.000,0.85043344187,0.15830099322,0.0026,2.360
18000,4162654.7780,664522.5250,4770531.3520,-1.5760,9.8750,0.0000,0.000,0.000,0.000,0.000,0.000,0.000,0.85043344182,0.15830336548,0.0029,1.729000000,0.000000000,0.000000000,0.00000000000,0.00000000000,0.00000000000,0.00000000000,0.00000000000,0.00000000000,4162654.7780,664522.5250,4770531.3520,-1.5760,9.8750,0.0000,0.000,0.000,0.000,0.85043344182,0.15830336548,0.0029,2.361
19000,4162653.2020,664532.4000,4770531.3520,-1.5760,9.8750,0.0000,0.000,0.000,0.000,0.000,0.000,0.000,0.85043344177,0.15830573775,0.0032,1.729000000,0.000000000,0.000000000,0.00000000000,0.00000000000,0.00000000000,0.00000000000,0.00000000000,0.00000000000,4162653.2020,664532.4000,4770531.3520,-1.5760,9.8750,0.0000,0.000,0.000,0.000,0.85043344177,0.15830573775,0.0032,2.361
20000,4162651.6260,664542.2750,4770531.3520,-1.5760,9.8750,0.0000,0.000,0.000,0.000,0.000,0.000,0.000,0.85043344171,0.15830811002,0.0035,1.729000000,0.000000000,0.000000000,0.00000000000,0.00000000000,0.00000000000,0.00000000000,0.00000000000,0.00000000000,4162651.6260,664542.2750,4770531.3520,-1.5760,9.8750,0.0000,0.000,0.000,0.000,0.85043344171,0.15830811002,0.0035,2.361
21000,4162650.0500,664552.1500,4770531.3520,-1.5760,9.8750,0.0000,0.000,0.000,0.000,0.000,0.000,0.000,0.85043344166,0.15831048229,0.0038,1.729000000,0.000000000,0.000000000,0.00000000000,0.00000000000,0.00000000000,0.00000000000,0.00000000000,0.00000000000,4162650.0500,664552.1500,4770531.3520,-1.5760,9.8750,0.0000,0.000,0.000,0.000,0.85043344166,0.15831048229,0.0038,2.361
22000,4162648.4740,664562.0250,4770531.3520,-1.5760,9.8750,0.0000,0.000,0.000,0.000,0.000,0.000,0.000,0.85043344160,0.15831285455,0.0042,1.729000000,0.000000000,0.000000000,0.00000000000,0.00000000000,0.00000000000,0.00000000000,0.00000000000,0.00000000000,4162648.4740,664562.0250,4770531.3520,-1.5760,9.8750,0.0000,0.000,0.000,0.000,0.85043344160,0.15831285455,0.0042,2.361
23000,4162646.8980,664571.9000,4770531.3520,-1.5760,9.8750,0.0000,0.000,0.000,0.000,0.000,0.000,0.000,0.85043344153,0.15831522682,0.0045,1.729000000,0.000000000,0.000000000,0.00000000000,0.00000000000,0.00000000000,0.00000000000,0.00000000000,0.00000000000,4162646.8980,664571.9000,4770531.3520,-1.5760,9.8750,0.0000,0.000,0.000,0.000,0.85043344153,0.15831522682,0.0045,2.361
24000,4162645.3220,664581.7750,4770531.3520,-1.5760,9.8750,0.0000,0.000,0.000,0.000,0.000,0.000,0.000,0.85043344147,0.15831759909,0.0049,1.729000000,0.000000000,0.000000000,0.00000000000,0.00000000000,0.00000000000,0.00000000000,0.00000000000,0.00000000000,4162645.3220,664581.7750,4770531.3520,-1.5760,9.8750,0.0000,0.000,0.000,0.000,0.85043344147,0.15831759909,0.0049,2.362
25000,4162643.7460,664591.6510,4770531.3520,-1.5760,9.8750,0.0000,0.000,0.000,0.000,0.000,0.000,0.000,0.85043344138,0.15831997159,0.0054,1.729000000,0.000000000,0.000000000,0.00000000000,0.00000000000,0.00000000000,0.00000000000,0.00000000000,0.00000000000,4162643.7460,664591.6510,4770531.3520,-1.5760,9.8750,0.0000,0.000,0.000,0.000,0.85043344138,0.15831997159,0.0054,2.362
26000,4162642.1700,664601.5260,4770531.3520,-1.5760,9.8750,0.0000,0.000,0.000,0.000,0.000,0.000,0.000,0.85043344131,0.15832234386,0.0058,1.729000000,0.000000000,0.000000000,0.00000000000,0.00000000000,0.00000000000,0.00000000000,0.00000000000,0.00000000000,4162642.1700,664601.5260,4770531.3520,-1.5760,9.8750,0.0000,0.000,0.000,0.000,0.85043344131,0.15832234386,0.0058,2.362
27000,4162640.5940,664611.4010,4770531.3520,-1.5760,9.8750,0.0000,0.000,0.000,0.000,0.000,0.000,0.000,0.85043344123,0.15832471613,0.0062,1.729000000,0.000000000,0.000000000,0.00000000000,0.00000000000,0.00000000000,0.00000000000,0.00000000000,0.00000000000,4162640.5940,664611.4010,4770531.3520,-1.5760,9.8750,0.0000,0.000,0.000,0.000,0.85043344123,0.15832471613,0.0062,2.362
28000,4162639.0180,664621.2760,4770531.3520,-1.5760,9.8750,0.0000,0.000,0.000,0.000,0.000,0.000,0.000,0.85043344115,0.15832708840,0.0066,1.729000000,0.000000000,0.000000000,0.00000000000,0.00000000000,0.00000000000,0.00000000000,0.00000000000,0.00000000000,4162639.0180,664621.2760,4770531.3520,-1.5760,9.8750,0.0000,0.000,0.000,0.000,0.85043344115,0.15832708840,0.0066,2.362
29000,4162637.4420,664631.1510,4770531.3520,-1.5760,9.8750,0.0000,0.000,0.000,0.000,0.000,0.000,0.000,0.85043344107,0.15832946066,0.0071,1.729000000,0.000000000,0.000000000,0.00000000000,0.00000000000,0.00000000000,0.00000000000,0.00000000000,0.00000000000,4162637.4420,664631.1510,4770531.3520,-1.5760,9.8750,0.0000,0.000,0.000,0.000,0.85043344107,0.15832946066,0.0071,2.362
30000,4162635.8660,664641.0260,4770531.3520,-1.5760,9.8750,0.0000,0.000,0.000,0.000,0.000,0.000,0.000,0.85043344099,0.15833183293,0.0076,1.729000000,0.000000000,0.000000000,0.00000000000,0.00000000000,0.00000000000,0.00000000000,0.00000000000,0.00000000000,4162635.8660,664641.0260,4770531.3520,-1.5760,9.8750,0.0000,0.000,0.000,0.000,0.85043344099,0.15833183293,0.0076,2.362
31000,4162634.2900,664650.9010,4770531.3520,-1.5760,9.8750,0.0000,0.000,0.000,0.000,0.000,0.000,0.000,0.85043344091,0.15833420520,0.0080,1.729000000,0.000000000,0.000000000,0.00000000000,0.00000000000,0.00000000000,0.00000000000,0.00000000000,0.00000000000,4162634.2900,664650.9010,4770531.3520,-1.5760,9.8750,0.0000,0.000,0.000,0.000,0.85043344091,0.15833420520,0.0080,2.362
32000,4162632.7140,664660.7760,4770531.3520,-1.5760,9.8750,0.0000,0.000,0.000,0.000,0.000,0.000,0.000,0.85043344082,0.15833657747,0.0085,1.729000000,0.000000000,0.000000000,0.00000000000,0.00000000000,0.00000000000,0.00000000000,0.00000000000,0.00000000000,4162632.7140,664660.7760,4770531.3520,-1.5760,9.8750,0.0000,0.000,0.000,0.000,0.85043344082,0.15833657747,0.0085,2.362
33000,4162631.1380,664670.6510,4770531.3520,-1.5760,9.8750,0.0000,0.000,0.000,0.000,0.000,0.000,0.000,0.85043344073,0.15833894974,0.0090,1.729000000,0.000000000,0.000000000,0.00000000000,0.00000000000,0.00000000000,0.00000000000,0.00000000000,0.00000000000,4162631.1380,664670.6510,4770531.3520,-1.5760,9.8750,0.0000,0.000,0.000,0.000,0.85043344073,0.15833894974,0.0090,2.362
34000,4162629.5620,664680.5260,4770531.3520,-1.5760,9.8750,0.0000,0.000,0.000,0.000,0.000,0.000,0.000,0.85043344063,0.15834132200,0.0096,1.729000000,0.000000000,0.000000000,0.00000000000,0.00000000000,0.00000000000,0.00000000000,0.00000000000,0.00000000000,4162629.5620,664680.5260,4770531.3520,-1.5760,9.8750,0.0000,0.000,0.000,0.000,0.85043344063,0.15834132200,0.0096,2.362
35000,4162627.9860,664690.4010,4770531.3520,-1.5760,9.8750,0.0000,0.000,0.000,0.000,0.000,0.000,0.000,0.85043344053,0.15834369427,0.0101,1.729000000,0.000000000,0.000000000,0.00000000000,0.00000000000,0.00000000000,0.00000000000,0.00000000000,0.00000000000,4162627.9860,664690.4010,4770531.3520,-1.5760,9.8750,0.0000,0.000,0.000,0.000,0.85043344053,0.15834369427,0.0101,2.362
36000,4162626.4100,664700.2760,4770531.3520,-1.5760,9.8750,0.0000,0.000,0.000,0.000,0.000,0.000,0.000,0.85043344043,0.15834606654,0.0107,1.729000000,0.000000000,0.000000000,0.00000000000,0.00000000000,0.00000000000,0.00000000000,0.00000000000,0.00000000000,4162626.4100,664700.2760,4770531.3520,-1.5760,9.8750,0.0000,0.000,0.000,0.000,0.85043344043,0.15834606654,0.0107,2.363
37000,4162624.8340,664710.1510,4770531.3520,-1.5760,9.8750,0.0000,0.000,0.000,0.000,0.000,0.000,0.000,0.85043344033,0.15834843881,0.0112,1.729000000,0.000000000,0.000000000,0.00000000000,0.00000000000,0.00000000000,0.00000000000,0.00000000000,0.00000000000,4162624.8340,664710.1510,4770531.3520,-1.5760,9.8750,0.0000,0.000,0.000,0.000,0.85043344033,0.15834843881,0.0112,2.363
38000,4162623.2580,664720.0260,4770531.3520,-1.5760,9.8750,0.0000,0.000,0.000,0.000,0.000,0.000,0.000,0.85043344023,0.15835081107,0.0118,1.729000000,0.000000000,0.000000000,0.00000000000,0.00000000000,0.00000000000,0.00000000000,0.00000000000,0.00000000000,4162623.2580,664720.0260,4770531.3520,-1.5760,9.8750,0.0000,0.000,0.000,0.000,0.85043344023,0.15835081107,0.0118,2.363
39000,4162621.6820,664729.9010,4770531.3520,-1.5760,9.8750,0.0000,0.000,0.000,0.000,0.000,0.000,0.000,0.85043344012,0.15835318334,0.0124,1.729000000,0.000000000,0.000000000,0.00000000000,0.00000000000,0.00000000000,0.00000000000,0.00000000000,0.00000000000,4162621.6820,664729.9010,4770531.3520,-1.5760,9.8750,0.0000,0.000,0.000,0.000,0.85043344012,0.15835318334,0.0124,2.363
40000,4162620.1060,664739.7760,4770531.3520,-1.5760,9.8750,0.0000,0.000,0.000,0.000,0.000,0.000,0.000,0.85043344001,0.15835555561,0.0131,1.729000000,0.000000000,0.000000000,0.00000000000,0.00000000000,0.00000000000,0.00000000000,0.00000000000,0.00000000000,4162620.1060,664739.7760,4770531.3520,-1.5760,9.8750,0.0000,0.000,0.000,0.000,0.85043344001,0.15835555561,0.0131,2.363
41000,4162618.5300,664749.6510,4770531.3520,-1.5760,9.8750,0.0000,0.000,0.000,0.000,0.000,0.000,0.000,0.85043343989,0.15835792788,0.0137,1.729000000,0.000000000,0.000000000,0.00000000000,0.00000000000,0.00000000000,0.00000000000,0.00000000000,0.00000000000,4162618.5300,664749.6510,4770531.3520,-1.5760,9.8750,0.0000,0.000,0.000,0.000,0.85043343989,0.15835792788,0.0137,2.363
42000,4162616.9540,664759.5260,4770531.3520,-1.5760,9.8750,0.0000,0.000,0.000,0.000,0.000,0.000,0.000,0.85043343978,0.15836030015,0.0143,1.729000000,0.000000000,0.000000000,0.00000000000,0.00000000000,0.00000000000,0.00000000000,0.00000000000,0.00000000000,4162616.9540,664759.5260,4770531.3520,-1.5760,9.8750,0.0000,0.000,0.000,0.000,0.85043343978,0.15836030015,0.0143,2.363
43000,4162615.3780,664769.4010,4770531.3520,-1.5760,9.8750,0.0000,0.000,0.000,0.000,0.000,0.000,0.000,0.85043343966,0.15836267241,0.0150,1.729000000,0.000000000,0.000000000,0.00000000000,0.00000000000,0.00000000000,0.00000000000,0.00000000000,0.00000000000,4162615.3780,664769.4010,4770531.3520,-1.5760,9.8750,0.0000,0.000,0.000,0.000,0.85043343966,0.15836267241,0.0150,2.363
44000,4162613.8020,664779.2760,4770531.3520,-1.5760,9.8750,0.0000,0.000,0.000,0.000,0.000,0.000,0.000,0.85043343954,0.15836504468,0.0157,1.729000000,0.000000000,0.000000000,0.00000000000,0.00000000000,0.00000000000,0.00000000000,0.00000000000,0.00000000000,4162613.8020,664779.2760,4770531.3520,-1.5760,9.8750,0.0000,0.000,0.000,0.000,0.85043343954,0.15836504468,0.0157,2.363
45000,4162612.2260,664789.1510,4770531.3520,-1.5760,9.8750,0.0000,0.000,0.000,0.000,0.000,0.000,0.000,0.85043343941,0.15836741695,0.0164,1.729000000,0.000000000,0.000000000,0.00000000000,0.00000000000,0.00000000000,0.00000000000,0.00000000000,0.00000000000,4162612.2260,664789.1510,4770531.3520,-1.5760,9.8750,0.0000,0.000,0.000,0.000,0.85043343941,0.15836741695,0.0164,2.363
46000,4162610.6500,664799.0260,4770531.3520,-1.5760,9.8750,0.0000,0.000,0.000,0.000,0.000,0.000,0.000,0.85043343928,0.15836978922,0.0171,1.729000000,0.000000000,0.000000000,0.00000000000,0.00000000000,0.00000000000,0.00000000000,0.00000000000,0.00000000000,4162610.6500,664799.0260,4770531.3520,-1.5760,9.8750,0.0000,0.000,0.000,0.000,0.85043343928,0.15836978922,0.0171,2.363
47000,4162609.0740,664808.9010,4770531.3520,-1.5760,9.8750,0.0000,0.000,0.000,0.000,0.000,0.000,0.000,0.85043343915,0.15837216148,0.0178,1.729000000,0.000000000,0.000000000,0.00000000000,0.00000000000,0.00000000000,0.00000000000,0.00000000000,0.00000000000,4162609.0740,664808.9010,4770531.3520,-1.5760,9.8750,0.0000,0.000,0.000,0.000,0.85043343915,0.15837216148,0.0178,2.363
48000,4162607.4980,664818.7760,4770531.3520,-1.5760,9.8750,0.0000,0.000,0.000,0.000,0.000,0.000,0.000,0.85043343902,0.15837453375,0.0186,1.729000000,0.000000000,0.000000000,0.00000000000,0.00000000000,0.00000000000,0.00000000000,0.00000000000,0.00000000000,4162607.4980,664818.7760,4770531.3520,-1.5760,9.8750,0.0000,0.000,0.000,0.000,0.85043343902,0.15837453375,0.0186,2.364
49000,4162605.9220,664828.6510,4770531.3520,-1.5760,9.8750,0.0000,0.000,0.000,0.000,0.000,0.000,0.000,0.85043343888,0.15837690602,0.0193,1.729000000,0.000000000,0.000000000,0.00000000000,0.00000000000,0.00000000000,0.00000000000,0.00000000000,0.00000000000,4162605.9220,664828.6510,4770531.3520,-1.5760,9.8750,0.0000,0.000,0.000,0.000,0.85043343888,0.15837690602,0.0193,2.364
50000,4162604.3460,664838.5260,4770531.3520,-1.5760,9.8750,0.0000,0.000,0.000,0.000,0.000,0.000,0.000,0.85043343874,0.15837927829,0.0201,1.729000000,0.000000000,0.000000000,0.00000000000,0.00000000000,0.00000000000,0.00000000000,0.00000000000,0.00000000000,4162604.3460,664838.5260,4770531.3520,-1.5760,9.8750,0.0000,0.000,0.000,0.000,0.85043343874,0.15837927829,0.0201,2.364
51000,4162602.7700,664848.4010,4770531.3520,-1.5760,9.8750,0.0000,0.000,0.000,0.000,0.000,0.000,0.000,0.85043343860,0.15838165056,0.0209,1.729000000,0.000000000,0.000000000,0.00000000000,0.00000000000,0.00000000000,0.00000000000,0.00000000000,0.00000000000,4162602.7700,664848.4010,4770531.3520,-1.5760,9.8750,0.0000,0.000,0.000,0.000,0.85043343860,0.15838165056,0.0209,2.364
52000,4162601.1940,664858.2760,4770531.3520,-1.5760,9.8750,0.0000,0.000,0.000,0.000,0.000,0.000,0.000,0.85043343846,0.15838402282,0.0217,1.729000000,0.000000000,0.000000000,0.00000000000,0.00000000000,0.00000000000,0.00000000000,0.00000000000,0.00000000000,4162601.1940,664858.2760,4770531.3520,-1.5760,9.8750,0.0000,0.000,0.000,0.000,0.85043343846,0.15838402282,0.0217,2.364
53000,4162599.6180,664868.1510,4770531.3520,-1.5760,9.8750,0.0000,0.000,0.000,0.000,0.000,0.000,0.000,0.85043343831,0.15838639509,0.0225,1.729000000,0.000000000,0.000000000,0.00000000000,0.00000000000,0.00000000000,0.00000000000,0.00000000000,0.00000000000,4162599.6180,664868.1510,4770531.3520,-1.5760,9.8750,0.0000,0.000,0.000,0.000,0.85043343831,0.15838639509,0.0225,2.364
54000,4162598.0420,664878.0260,4770531.3520,-1.5760,9.8750,0.0000,0.000,0.000,0.000,0.000,0.000,0.000,0.85043343816,0.15838876736,0.0234,1.729000000,0.000000000,0.000000000,0.00000000000,0.00000000000,0.00000000000,0.00000000000,0.00000000000,0.00000000000,4162598.0420,664878.0260,4770531.3520,-1.5760,9.8750,0.0000,0.000,0.000,0.000,0.85043343816,0.15838876736,0.0234,2.365
55000,4162596.4660,664887.9010,4770531.3520,-1.5760,9.8750,0.0000,0.000,0.000,0.000,0.000,0.000,0.000,0.85043343801,0.15839113963,0.0242,1.729000000,0.000000000,0.000000000,0.00000000000,0.00000000000,0.00000000000,0.00000000000,0.00000000000,0.00000000000,4162596.4660,664887.9010,4770531.3520,-1.5760,9.8750,0.0000,0.000,0.000,0.000,0.85043343801,0.15839113963,0.0242,2.365
56000,4162594.8900,664897.7770,4770531.3520,-1.5760,9.8750,0.0000,0.000,0.000,0.000,0.000,0.000,0.000,0.85043343783,0.15839351213,0.0252,1.729000000,0.000000000,0.000000000,0.00000000000,0.00000000000,0.00000000000,0.00000000000,0.00000000000,0.00000000000,4162594.8900,664897.7770,4770531.3520,-1.5760,9.8750,0.0000,0.000,0.000,0.000,0.85043343783,0.15839351213,0.0252,2.365
57000,4162593.3140,664907.6520,4770531.3520,-1.5760,9.8750,0.0000,0.000,0.000,0.000,0.000,0.000,0.000,0.85043343767,0.15839588440,0.0261,1.729000000,0.000000000,0.000000000,0.00000000000,0.00000000000,0.00000000000,0.00000000000,0.00000000000,0.00000000000,4162593.3140,664907.6520,4770531.3520,-1.5760,9.8750,0.0000,0.000,0.000,0.000,0.85043343767,0.15839588440,0.0261,2.365
58000,4162591.7380,664917.5270,4770531.3520,-1.5760,9.8750,0.0000,0.000,0.000,0.000,0.000,0.000,0.000,0.85043343751,0.15839825667,0.0270,1.729000000,0.000000000,0.000000000,0.00000000000,0.00000000000,0.00000000000,0.00000000000,0.00000000000,0.00000000000,4162591.7380,664917.5270,4770531.3520,-1.5760,9.8750,0.0000,0.000,0.000,0.000,0.85043343751,0.15839825667,0.0270,2.365
59000,4162590.1620,664927.4020,4770531.3520,-1.5760,9.8750,0.0000,0.000,0.000,0.000,0.000,0.000,0.000,0.85043343735,0.15840062893,0.0279,1.729000000,0.000000000,0.000000000,0.00000000000,0.00000000000,0.00000000000,0.00000000000,0.00000000000,0.00000000000,4162590.1620,664927.4020,4770531.3520,-1.5760,9.8750,0.0000,0.000,0.000,0.000,0.85043343735,0.15840062893,0.0279,2.365
60000,4162588.5860,664937.2770,4770531.3520,-1.5760,9.8750,0.0000,0.000,0.000,0.000,0.000,0.000,0.000,0.85043343718,0.15840300120,0.0289,1.729000000,0.000000000,0.000000000,0.00000000000,0.00000000000,0.00000000000,0.00000000000,0.00000000000,0.00000000000,4162588.5860,664937.2770,4770531.3520,-1.5760,9.8750,0.0000,0.000,0.000,0.000,0.85043343718,0.15840300120,0.0289,2.365
61000,4162587.0100,664947.1520,4770531.3520,-1.5760,9.8750,0.0000,0.000,0.000,0.000,0.000,0.000,0.000,0.85043343701,0.15840537347,0.0298,1.729000000,0.000000000,0.000000000,0.00000000000,0.00000000000,0.00000000000,0.00000000000,0.00000000000,0.00000000000,4162587.0100,664947.1520,4770531.3520,-1.5760,9.8750,0.0000,0.000,0.000,0.000,0.85043343701,0.15840537347,0.0298,2.365
62000,4162585.4340,664957.0270,4770531.3520,-1.5760,9.8750,0.0000,0.000,0.000,0.000,0.000,0.000,0.000,0.85043343684,0.15840774574,0.0308,1.729000000,0.000000000,0.000000000,0.00000000000,0.00000000000,0.00000000000,0.00000000000,0.00000000000,0.00000000000,4162585.4340,664957.0270,4770531.3520,-1.5760,9.8750,0.0000,0.000,0.000,0.000,0.85043343684,0.15840774574,0.0308,2.365
63000,4162583.8580,664966.9020,4770531.3520,-1.5760,9.8750,0.0000,0.000,0.000,0.000,0.000,0.000,0.000,0.85043343666,0.15841011800,0.0318,1.729000000,0.000000000,0.000000000,0.00000000000,0.00000000000,0.00000000000,0.00000000000,0.00000000000,0.00000000000,4162583.8580,664966.9020,4770531.3520,-1.5760,9.8750,0.0000,0.000,0.000,0.000,0.85043343666,0.15841011800,0.0318,2.365
64000,4162582.2820,664976.7770,4770531.3520,-1.5760,9.8750,0.0000,0.000,0.000,0.000,0.000,0.000,0.000,0.85043343649,0.15841249027,0.0327,1.729000000,0.000000000,0.000000000,0.00000000000,0.00000000000,0.00000000000,0.00000000000,0.00000000000,0.00000000000,4162582.2820,664976.7770,4770531.3520,-1.5760,9.8750,0.0000,0.000,0.000,0.000,0.85043343649,0.15841249027,0.0327,2.365
65000,4162580.7060,664986.6520,4770531.3520,-1.5760,9.8750,0.0000,0.000,0.000,0.000,0.000,0.000,0.000,0.85043343630,0.15841486254,0.0338,1.729000000,0.000000000,0.000000000,0.00000000000,0.00000000000,0.00000000000,0.00000000000,0.00000000000,0.00000000000,4162580.7060,664986.6520,4770531.3520,-1.5760,9.8750,0.0000,0.000,0.000,0.000,0.85043343630,0.15841486254,0.0338,2.365
66000,4162579.1300,664996.5270,4770531.3520,-1.5760,9.8750,0.0000,0.000,0.000,0.000,0.000,0.000,0.000,0.85043343612,0.15841723481,0.0348,1.729000000,0.000000000,0.000000000,0.00000000000,0.00000000000,0.00000000000,0.00000000000,0.00000000000,0.00000000000,4162579.1300,664996.5270,4770531.3520,-1.5760,9.8750,0.0000,0.000,0.000,0.000,0.85043343612,0.15841723481,0.0348,2.366
67000,4162577.5540,665006.4020,4770531.3520,-1.5760,9.8750,0.0000,0.000,0.000,0.000,0.000,0.000,0.000,0.85043343593,0.15841960708,0.0358,1.729000000,0.000000000,0.000000000,0.00000000000,0.00000000000,0.00000000000,0.00000000000,0.00000000000,0.00000000000,4162577.5540,665006.4020,4770531.3520,-1.5760,9.8750,0.0000,0.000,0.000,0.000,0.85043343593,0.15841960708,0.0358,2.366
68000,4162575.9780,665016.2770,4770531.3520,-1.5760,9.8750,0.0000,0.000,0.000,0.000,0.000,0.000,0.000,0.85043343575,0.15842197934,0.0369,1.729000000,0.000000000,0.000000000,0.00000000000,0.00000000000,0.00000000000,0.00000000000,0.00000000000,0.00000000000,4162575.9780,665016.2770,4770531.3520,-1.5760,9.8750,0.0000,0.000,0.000,0.000,0.85043343575,0.15842197934,0.0369,2.366
69000,4162574.4020,665026.1520,4770531.3520,-1.5760,9.8750,0.0000,0.000,0.000,0.000,0.000,0.000,0.000,0.85043343555,0.15842435161,0.0380,1.729000000,0.000000000,0.000000000,0.00000000000,0.00000000000,0.00000000000,0.00000000000,0.00000000000,0.00000000000,4162574.4020,665026.1520,4770531.3520,-1.5760,9.8750,0.0000,0.000,0.000,0.000,0.85043343555,0.15842435161,0.0380,2.366
70000,4162572.8260,665036.0270,4770531.3520,-1.5760,9.8750,0.0000,0.000,0.000,0.000,0.000,0.000,0.000,0.85043343536,0.15842672388,0.0391,1.729000000,0.000000000,0.000000000,0.00000000000,0.00000000000,0.00000000000,0.00000000000,0.00000000000,0.00000000000,4162572.8260,665036.0270,4770531.3520,-1.5760,9.8750,0.0000,0.000,0.000,0.000,0.85043343536,0.15842672388,0.0391,2.366
71000,4162571.2500,665045.9020,4770531.3520,-1.5760,9.8750,0.0000,0.000,0.000,0.000,0.000,0.000,0.000,0.85043343516,0.15842909615,0.0402,1.729000000,0.000000000,0.000000000,0.00000000000,0.00000000000,0.00000000000,0.00000000000,0.00000000000,0.00000000000,4162571.2500,665045.9020,4770531.3520,-1.5760,9.8750,0.0000,0.000,0.000,0.000,0.85043343516,0.15842909615,0.0402,2.366
72000,4162569.6740,665055.7770,4770531.3520,-1.5760,9.8750,0.0000,0.000,0.000,0.000,0.000,0.000,0.000,0.85043343496,0.15843146841,0.0413,1.729000000,0.000000000,0.000000000,0.00000000000,0.00000000000,0.00000000000,0.00000000000,0.00000000000,0.00000000000,4162569.6740,665055.7770,4770531.3520,-1.5760,9.8750,0.0000,0.000,0.000,0.000,0.85043343496,0.15843146841,0.0413,2.367
73000,4162568.0980,665065.6520,4770531.3520,-1.5760,9.8750,0.0000,0.000,0.000,0.000,0.000,0.000,0.000,0.85043343476,0.15843384068,0.0424,1.729000000,0.000000000,0.000000000,0.00000000000,0.00000000000,0.00000000000,0.00000000000,0.00000000000,0.00000000000,4162568.0980,665065.6520,4770531.3520,-1.5760,9.8750,0.0000,0.000,0.000,0.000,0.85043343476,0.15843384068,0.0424,2.367
74000,4162566.5220,665075.5270,4770531.3520,-1.5760,9.8750,0.0000,0.000,0.000,0.000,0.000,0.000,0.000,0.85043343455,0.15843621295,0.0436,1.729000000,0.000000000,0.000000000,0.00000000000,0.00000000000,0.00000000000,0.00000000000,0.00000000000,0.00000000000,4162566.5220,665075.5270,4770531.3520,-1.5760,9.8750,0.0000,0.000,0.000,0.000,0.85043343455,0.15843621295,0.0436,2.367
75000,4162564.9460,665085.4020,4770531.3520,-1.5760,9.8750,0.0000,0.000,0.000,0.000,0.000,0.000,0.000,0.85043343434,0.15843858522,0.0447,1.729000000,0.000000000,0.000000000,0.00000000000,0.00000000000,0.00000000000,0.00000000000,0.00000000000,0.00000000000,4162564.9460,665085.4020,4770531.3520,-1.5760,9.8750,0.0000,0.000,0.000,0.000,0.85043343434,0.15843858522,0.0447,2.367
76000,4162563.3700,665095.2770,4770531.3520,-1.5760,9.8750,0.0000,0.000,0.000,0.000,0.000,0.000,0.000,0.85043343413,0.15844095749,0.0459,1.729000000,0.000000000,0.000000000,0.00000000000,0.00000000000,0.00000000000,0.00000000000,0.00000000000,0.00000000000,4162563.3700,665095.2770,4770531.3520,-1.5760,9.8750,0.0000,0.000,0.000,0.000,0.85043343413,0.15844095749,0.0459,2.367
77000,4162561.7940,665105.1520,4770531.3520,-1.5760,9.8750,0.0000,0.000,0.000,0.000,0.000,0.000,0.000,0.85043343392,0.15844332975,0.0471,1.729000000,0.000000000,0.000000000,0.00000000000,0.00000000000,0.00000000000,0.00000000000,0.00000000000,0.00000000000,4162561.7940,665105.1520,4770531.3520,-1.5760,9.8750,0.0000,0.000,0.000,0.000,0.85043343392,0.15844332975,0.0471,2.367
78000,4162560.2180,665115.0270,4770531.3520,-1.5760,9.8750,0.0000,0.000,0.000,0.000,0.000,0.000,0.000,0.85043343370,0.15844570202,0.0483,1.729000000,0.000000000,0.000000000,0.00000000000,0.00000000000,0.00000000000,0.00000000000,0.00000000000,0.00000000000,4162560.2180,665115.0270,4770531.3520,-1.5760,9.8750,0.0000,0.000,0.000,0.000,0.85043343370,0.15844570202,0.0483,2.367
79000,4162558.6420,665124.9020,4770531.3520,-1.5760,9.8750,0.0000,0.000,0.000,0.000,0.000,0.000,0.000,0.85043343348,0.15844807429,0.0496,1.729000000,0.000000000,0.000000000,0.00000000000,0.00000000000,0.00000000000,0.00000000000,0.00000000000,0.00000000000,4162558.6420,665124.9020,4770531.3520,-1.5760,9.8750,0.0000,0.000,0.000,0.000,0.85043343348,0.15844807429,0.0496,2.367
80000,4162557.0660,665134.7770,4770531.3520,-1.5760,9.8750,0.0000,0.000,0.000,0.000,0.000,0.000,0.000,0.85043343326,0.15845044656,0.0508,1.729000000,0.000000000,0.000000000,0.00000000000,0.00000000000,0.00000000000,0.00000000000,0.00000000000,0.00000000000,4162557.0660,665134.7770,4770531.3520,-1.5760,9.8750,0.0000,0.000,0.000,0.000,0.85043343326,0.15845044656,0.0508,2.367
81000,4162555.4900,665144.6520,4770531.3520,-1.5760,9.8750,0.0000,0.000,0.000,0.000,0.000,0.000,0.000,0.85043343303,0.15845281882,0.0521,1.729000000,0.000000000,0.000000000,0.00000000000,0.00000000000,0.00000000000,0.00000000000,0.00000000000,0.00000000000,4162555.4900,665144.6520,4770531.3520,-1.5760,9.8750,0.0000,0.000,0.000,0.000,0.85043343303,0.15845281882,0.0521,2.367
82000,4162553.9140,665154.5270,4770531.3520,-1.5760,9.8750,0.0000,0.000,0.000,0.000,0.000,0.000,0.000,0.85043343280,0.15845519109,0.0534,1.729000000,0.000000000,0.000000000,0.00000000000,0.00000000000,0.00000000000,0.00000000000,0.00000000000,0.00000000000,4162553.9140,665154.5270,4770531.3520,-1.5760,9.8750,0.0000,0.000,0.000,0.000,0.85043343280,0.15845519109,0.0534,2.367
83000,4162552.3380,665164.4020,4770531.3520,-1.5760,9.8750,0.0000,0.000,0.000,0.000,0.000,0.000,0.000,0.85043343257,0.15845756336,0.0546,1.729000000,0.000000000,0.000000000,0.00000000000,0.00000000000,0.00000000000,0.00000000000,0.00000000000,0.00000000000,4162552.3380,665164.4020,4770531.3520,-1.5760,9.8750,0.0000,0.000,0.000,0.000,0.85043343257,0.15845756336,0.0546,2.367
84000,4162550.7620,665174.2770,4770531.3520,-1.5760,9.8750,0.0000,0.000,0.000,0.000,0.000,0.000,0.000,0.85043343234,0.15845993563,0.0560,1.729000000,0.000000000,0.000000000,0.00000000000,0.00000000000,0.00000000000,0.00000000000,0.00000000000,0.00000000000,4162550.7620,665174.2770,4770531.3520,-1.5760,9.8750,0.0000,0.000,0.000,0.000,0.85043343234,0.15845993563,0.0560,2.368
85000,4162549.1860,665184.1520,4770531.3520,-1.5760,9.8750,0.0000,0.000,0.000,0.000,0.000,0.000,0.000,0.85043343210,0.15846230790,0.0573,1.729000000,0.000000000,0.000000000,0.00000000000,0.00000000000,0.00000000000,0.00000000000,0.00000000000,0.00000000000,4162549.1860,665184.1520,4770531.3520,-1.5760,9.8750,0.0000,0.000,0.000,0.000,0.85043343210,0.15846230790,0.0573,2.368
86000,4162547.6100,665194.0270,4770531.3520,-1.5760,9.8750,0.0000,0.000,0.000,0.000,0.000,0.000,0.000,0.85043343186,0.15846468016,0.0586,1.729000000,0.000000000,0.000000000,0.00000000000,0.00000000000,0.00000000000,0.00000000000,0.00000000000,0.00000000000,4162547.6100,665194.0270,4770531.3520,-1.5760,9.8750,0.0000,0.000,0.000,0.000,0.85043343186,0.15846468016,0.0586,2.368
87000,4162546.0340,665203.9020,4770531.3520,-1.5760,9.8750,0.0000,0.000,0.000,0.000,0.000,0.000,0.000,0.85043343162,0.15846705243,0.0600,1.729000000,0.000000000,0.000000000,0.00000000000,0.00000000000,0.00000000000,0.00000000000,0.00000000000,0.00000000000,4162546.0340,665203.9020,4770531.3520,-1.5760,9.8750,0.0000,0.000,0.000,0.000,0.85043343162,0.15846705243,0.0600,2.368
88000,4162544.4580,665213.7780,4770531.3520,-1.5760,9.8750,0.0000,0.000,0.000,0.000,0.000,0.000,0.000,0.85043343135,0.15846942493,0.0615,1.729000000,0.000000000,0.000000000,0.00000000000,0.00000000000,0.00000000000,0.00000000000,0.00000000000,0.00000000000,4162544.4580,665213.7780,4770531.3520,-1.5760,9.8750,0.0000,0.000,0.000,0.000,0.85043343135,0.15846942493,0.0615,2.368
89000,4162542.8820,665223.6530,4770531.3520,-1.5760,9.8750,0.0000,0.000,0.000,0.000,0.000,0.000,0.000,0.85043343110,0.15847179720,0.0628,1.729000000,0.000000000,0.000000000,0.00000000000,0.00000000000,0.00000000000,0.00000000000,0.00000000000,0.00000000000,4162542.8820,665223.6530,4770531.3520,-1.5760,9.8750,0.0000,0.000,0.000,0.000,0.85043343110,0.15847179720,0.0628,2.368
90000,4162541.3070,665233.5280,4770531.3520,-1.5760,9.8750,0.0000,0.000,0.000,0.000,0.000,0.000,0.000,0.85043343074,0.15847416943,0.0649,1.729000000,0.000000000,0.000000000,0.00000000000,0.00000000000,0.00000000000,0.00000000000,0.00000000000,0.00000000000,4162541.3070,665233.5280,4770531.3520,-1.5760,9.8750,0.0000,0.000,0.000,0.000,0.85043343074,0.15847416943,0.0649,2.368
91000,4162539.7310,665243.4030,4770531.3520,-1.5760,9.8750,0.0000,0.000,0.000,0.000,0.000,0.000,0.000,0.85043343048,0.15847654170,0.0663,1.729000000,0.000000000,0.000000000,0.00000000000,0.00000000000,0.00000000000,0.00000000000,0.00000000000,0.00000000000,4162539.7310,665243.4030,4770531.3520,-1.5760,9.8750,0.0000,0.000,0.000,0.000,0.85043343048,0.15847654170,0.0663,2.368
92000,4162538.1550,665253.2780,4770531.3520,-1.5760,9.8750,0.0000,0.000,0.000,0.000,0.000,0.000,0.000,0.85043343023,0.15847891397,0.0677,1.729000000,0.000000000,0.000000000,0.00000000000,0.00000000000,0.00000000000,0.00000000000,0.00000000000,0.00000000000,4162538.1550,665253.2780,4770531.3520,-1.5760,9.8750,0.0000,0.000,0.000,0.000,0.85043343023,0.15847891397,0.0677,2.368
93000,4162536.5790,665263.1530,4770531.3520,-1.5760,9.8750,0.0000,0.000,0.000,0.000,0.000,0.000,0.000,0.85043342997,0.15848128623,0.0692,1.729000000,0.000000000,0.000000000,0.00000000000,0.00000000000,0.00000000000,0.00000000000,0.00000000000,0.00000000000,4162536.5790,665263.1530,4770531.3520,-1.5760,9.8750,0.0000,0.000,0.000,0.000,0.85043342997,0.15848128623,0.0692,2.368
94000,4162535.0030,665273.0280,4770531.3520,-1.5760,9.8750,0.0000,0.000,0.000,0.000,0.000,0.000,0.000,0.85043342971,0.15848365850,0.0707,1.729000000,0.000000000,0.000000000,0.00000000000,0.00000000000,0.00000000000,0.00000000000,0.00000000000,0.00000000000,4162535.0030,665273.0280,4770531.3520,-1.5760,9.8750,0.0000,0.000,0.000,0.000,0.85043342971,0.15848365850,0.0707,2.368
95000,4162533.4270,665282.9030,4770531.3520,-1.5760,9.8750,0.0000,0.000,0.000,0.000,0.000,0.000,0.000,0.85043342944,0.15848603077,0.0721,1.729000000,0.000000000,0.000000000,0.00000000000,0.00000000000,0.00000000000,0.00000000000,0.00000000000,0.00000000000,4162533.4270,665282.9030,4770531.3520,-1.5760,9.8750,0.0000,0.000,0.000,0.000,0.85043342944,0.15848603077,0.0721,2.368
96000,4162531.8510,665292.7780,4770531.3520,-1.5760,9.8750,0.0000,0.000,0.000,0.000,0.000,0.000,0.000,0.85043342917,0.15848840304,0.0736,1.729000000,0.000000000,0.000000000,0.00000000000,0.00000000000,0.00000000000,0.00000000000,0.00000000000,0.00000000000,4162531.8510,665292.7780,4770531.3520,-1.5760,9.8750,0.0000,0.000,0.000,0.000,0.85043342917,0.15848840304,0.0736,2.369
97000,4162530.2750,665302.6530,4770531.3520,-1.5760,9.8750,0.0000,0.000,0.000,0.000,0.000,0.000,0.000,0.85043342890,0.15849077530,0.0752,1.729000000,0.000000000,0.000000000,0.00000000000,0.00000000000,0.00000000000,0.00000000000,0.00000000000,0.00000000000,4162530.2750,665302.6530,4770531.3520,-1.5760,9.8750,0.0000,0.000,0.000,0.000,0.85043342890,0.15849077530,0.0752,2.369
98000,4162528.6990,665312.5280,4770531.3520,-1.5760,9.8750,0.0000,0.000,0.000,0.000,0.000,0.000,0.000,0.85043342863,0.15849314757,0.0767,1.729000000,0.000000000,0.000000000,0.00000000000,0.00000000000,0.00000000000,0.00000000000,0.00000000000,0.00000000000,4162528.6990,665312.5280,4770531.3520,-1.5760,9.8750,0.0000,0.000,0.000,0.000,0.85043342863,0.15849314757,0.0767,2.369
99000,4162527.1230,665322.4030,4770531.3520,-1.5760,9.8750,0.0000,0.000,0.000,0.000,0.000,0.000,0.000,0.85043342835,0.15849551984,0.0782,1.729000000,0.000000000,0.000000000,0.00000000000,0.00000000000,0.00000000000,0.00000000000,0.00000000000,0.00000000000,4162527.1230,665322.4030,4770531.3520,-1.5760,9.8750,0.0000,0.000,0.000,0.000,0.85043342835,0.15849551984,0.0782,2.369
100000,4162525.5470,665332.2780,4770531.3520,-1.5760,9.8750,0.0000,0.000,0.000,0.000,0.000,0.000,0.000,0.85043342807,0.15849789211,0.0798,1.729000000,0.000000000,0.000000000,0.00000000000,0.00000000000,0.00000000000,0.00000000000,0.00000000000,0.00000000000,4162525.5470,665332.2780,4770531.3520,-1.5760,9.8750,0.0000,0.000,0.000,0.000,0.85043342807,0.15849789211,0.0798,2.369
101000,4162523.9710,665342.1533,4770531.3520,-1.5760,9.8750,0.0000,0.000,0.000,0.000,0.000,0.000,0.000,0.85043342779,0.15850026443,0.0814,1.729001337,0.000001159,0.000000185,0.00000000000,0.00000000000,0.00000000000,0.00000000000,0.00000000000,0.00000000000,4162523.9710,665342.1533,4770531.3520,-1.5760,9.8750,0.0000,0.000,0.000,0.000,0.85043342779,0.15850026443,0.0814,2.369
102000,4162522.3950,665352.0283,4770531.3520,-1.5760,9.8750,0.0000,0.000,0.000,0.000,0.000,0.000,0.000,0.85043342750,0.15850263670,0.0830,1.729003120,0.000002704,0.000000431,0.00000000000,0.00000000000,0.00000000000,0.00000000000,0.00000000000,0.00000000000,4162522.3950,665352.0283,4770531.3520,-1.5760,9.8750,0.0000,0.000,0.000,0.000,0.85043342750,0.15850263670,0.0830,2.370
103000,4162520.8190,665361.9033,4770531.3520,-1.5760,9.8750,0.0000,0.000,0.000,0.000,0.000,0.000,0.000,0.85043342722,0.15850500897,0.0846,1.729004903,0.000004250,0.000000677,0.00000000000,0.00000000000,0.00000000000,0.00000000000,0.00000000000,0.00000000000,4162520.8190,665361.9033,4770531.3520,-1.5760,9.8750,0.0000,0.000,0.000,0.000,0.85043342722,0.15850500897,0.0846,2.370
104000,4162519.2430,665371.7783,4770531.3520,-1.5760,9.8750,0.0000,0.000,0.000,0.000,0.000,0.000,0.000,0.85043342693,0.15850738124,0.0862,1.729006686,0.000005795,0.000000923,0.00000000000,0.00000000000,0.00000000000,0.00000000000,0.00000000000,0.00000000000,4162519.2430,665371.7783,4770531.3520,-1.5760,9.8750,0.0000,0.000,0.000,0.000,0.85043342693,0.15850738124,0.0862,2.370
105000,4162517.6670,665381.6533,4770531.3520,-1.5760,9.8750,0.0000,0.000,0.000,0.000,0.000,0.000,0.000,0.85043342663,0.15850975351,0.0878,1.729008469,0.000007341,0.000001170,0.00000000000,0.00000000000,0.00000000000,0.00000000000,0.00000000000,0.00000000000,4162517.6670,665381.6533,4770531.3520,-1.5760,9.8750,0.0000,0.000,0.000,0.000,0.85043342663,0.15850975351,0.0878,2.370
106000,4162516.0910,665391.5283,4770531.3520,-1.5760,9.8750,0.0000,0.000,0.000,0.000,0.000,0.000,0.000,0.85043342634,0.15851212577,0.0895,1.729010252,0.000008886,0.000001416,0.00000000000,0.00000000000,0.00000000000,0.00000000000,0.00000000000,0.00000000000,4162516.0910,665391.5283,4770531.3520,-1.5760,9.8750,0.0000,0.000,0.000,0.000,0.85043342634,0.15851212577,0.0895,2.370
107000,4162514.5150,665401.4033,4770531.3520,-1.5760,9.8750,0.0000,0.000,0.000,0.000,0.000,0.000,0.000,0.85043342604,0.15851449804,0.0912,1.729012035,0.000010431,0.000001662,0.00000000000,0.00000000000,0.00000000000,0.00000000000,0.00000000000,0.00000000000,4162514.5150,665401.4033,4770531.3520,-1.5760,9.8750,0.0000,0.000,0.000,0.000,0.85043342604,0.15851449804,0.0912,2.370
108000,4162512.9390,665411.2783,4770531.3520,-1.5760,9.8750,0.0000,0.000,0.000,0.000,0.000,0.000,0.000,0.85043342574,0.15851687031,0.0929,1.729013818,0.000011977,0.000001909,0.00000000000,0.00000000000,0.00000000000,0.00000000000,0.00000000000,0.00000000000,4162512.9390,665411.2783,4770531.3520,-1.5760,9.8750,0.0000,0.000,0.000,0.000,0.85043342574,0.15851687031,0.0929,2.370
109000,4162511.3630,665421.1533,4770531.3520,-1.5760,9.8750,0.0000,0.000,0.000,0.000,0.000,0.000,0.000,0.85043342543,0.15851924258,0.0946,1.729015601,0.000013522,0.000002155,0.00000000000,0.00000000000,0.00000000000,0.00000000000,0.00000000000,0.00000000000,4162511.3630,665421.1533,4770531.3520,-1.5760,9.8750,0.0000,0.000,0.000,0.000,0.85043342543,0.15851924258,0.0946,2.370
110000,4162509.7870,665431.0283,4770531.3520,-1.5760,9.8750,0.0000,0.000,0.000,0.000,0.000,0.000,0.000,0.85043342513,0.15852161484,0.0963,1.729017383,0.000015068,0.000002401,0.00000000000,0.00000000000,0.00000000000,0.00000000000,0.00000000000,0.00000000000,4162509.7870,665431.0283,4770531.3520,-1.5760,9.8750,0.0000,0.000,0.000,0.000,0.85043342513,0.15852161484,0.0963,2.370
111000,4162508.2110,665440.9033,4770531.3520,-1.5760,9.8750,0.0000,0.000,0.000,0.000,0.000,0.000,0.000,0.85043342482,0.15852398711,0.0980,1.729019166,0.000016613,0.000002647,0.00000000000,0.00000000000,0.00000000000,0.00000000000,0.00000000000,0.00000000000,4162508.2110,665440.9033,4770531.3520,-1.5760,9.8750,0.0000,0.000,0.000,0.000,0.85043342482,0.15852398711,0.0980,2.370
112000,4162506.6350,665450.7783,4770531.3520,-1.5760,9.8750,0.0000,0.000,0.000,0.000,0.000,0.000,0.000,0.85043342450,0.15852635938,0.0997,1.729020949,0.000018158,0.000002894,0.00000000000,0.00000000000,0.00000000000,0.00000000000,0.00000000000,0.00000000000,4162506.6350,665450.7783,4770531.3520,-1.5760,9.8750,0.0000,0.000,0.000,0.000,0.85043342450,0.15852635938,0.0997,2.370
113000,4162505.0590,665460.6533,4770531.3520,-1.5760,9.8750,0.0000,0.000,0.000,0.000,0.000,0.000,0.000,0.85043342419,0.15852873165,0.1015,1.729022732,0.000019704,0.000003140,0.00000000000,0.00000000000,0.00000000000,0.00000000000,0.00000000000,0.00000000000,4162505.0590,665460.6533,4770531.3520,-1.5760,9.8750,0.0000,0.000,0.000,0.000,0.85043342419,0.15852873165,0.1015,2.370
114000,4162503.4830,665470.5283,4770531.3520,-1.5760,9.8750,0.0000,0.000,0.000,0.000,0.000,0.000,0.000,0.85043342387,0.15853110391,0.1033,1.729024515,0.000021249,0.000003386,0.00000000000,0.00000000000,0.00000000000,0.00000000000,0.00000000000,0.00000000000,4162503.4830,665470.5283,4770531.3520,-1.5760,9.8750,0.0000,0.000,0.000,0.000,0.85043342387,0.15853110391,0.1033,2.371
115000,4162501.9070,665480.4033,4770531.3520,-1.5760,9.8750,0.0000,0.000,0.000,0.000,0.000,0.000,0.000,0.85043342355,0.15853347618,0.1051,1.729026298,0.000022794,0.000003632,0.00000000000,0.00000000000,0.00000000000,0.00000000000,0.00000000000,0.00000000000,4162501.9070,665480.4033,4770531.3520,-1.5760,9.8750,0.0000,0.000,0.000,0.000,0.85043342355,0.15853347618,0.1051,2.371
116000,4162500.3310,665490.2783,4770531.3520,-1.5760,9.8750,0.0000,0.000,0.000,0.000,0.000,0.000,0.000,0.85043342323,0.15853584845,0.1069,1.729028081,0.000024340,0.000003879,0.00000000000,0.00000000000,0.00000000000,0.00000000000,0.00000000000,0.00000000000,4162500.3310,665490.2783,4770531.3520,-1.5760,9.8750,0.0000,0.000,0.000,0.000,0.85043342323,0.15853584845,0.1069,2.371
117000,4162498.7550,665500.1533,4770531.3520,-1.5760,9.8750,0.0000,0.000,0.000,0.000,0.000,0.000,0.000,0.85043342290,0.15853822072,0.1087,1.729029864,0.000025885,0.000004125,0.00000000000,0.00000000000,0.00000000000,0.00000000000,0.00000000000,0.00000000000,4162498.7550,665500.1533,4770531.3520,-1.5760,9.8750,0.0000,0.000,0.000,0.000,0.85043342290,0.15853822072,0.1087,2.371
118000,4162497.1790,665510.0283,4770531.3520,-1.5760,9.8750,0.0000,0.000,0.000,0.000,0.000,0.000,0.000,0.85043342257,0.15854059299,0.1106,1.729031647,0.000027431,0.000004371,0.00000000000,0.00000000000,0.00000000000,0.00000000000,0.00000000000,0.00000000000,4162497.1790,665510.0283,4770531.3520,-1.5760,9.8750,0.0000,0.000,0.000,0.000,0.85043342257,0.15854059299,0.1106,2.371
119000,4162495.6030,665519.9033,4770531.3520,-1.5760,9.8750,0.0000,0.000,0.000,0.000,0.000,0.000,0.000,0.85043342224,0.15854296525,0.1124,1.729033430,0.000028976,0.000004617,0.00000000000,0.00000000000,0.00000000000,0.00000000000,0.00000000000,0.00000000000,4162495.6030,665519.9033,4770531.3520,-1.5760,9.8750,0.0000,0.000,0.000,0.000,0.85043342224,0.15854296525,0.1124,2.371
120000,4162494.0270,665529.7783,4770531.3520,-1.5760,9.8750,0.0000,0.000,0.000,0.000,0.000,0.000,0.000,0.85043342190,0.15854533752,0.1143,1.729035213,0.000030521,0.000004864,0.00000000000,0.00000000000,0.00000000000,0.00000000000,0.00000000000,0.00000000000,4162494.0270,665529.7783,4770531.3520,-1.5760,9.8750,0.0000,0.000,0.000,0.000,0.85043342190,0.15854533752,0.1143,2.371
